Time (s),Gyroscope X (deg/s),Gyroscope Y (deg/s),Gyroscope Z (deg/s),Accelerometer X (g),Accelerometer Y (g),Accelerometer Z (g),Magnetometer X (uT),Magnetometer Y (uT),Magnetometer Z (uT)
0.000000,-2.3800000,-2.8080000,0.7320000,0.0030000,0.0120000,0.9950000,8.10000,-1.00000,-28.40000
0.029455,-2.3190000,-2.6860000,0.6100000,0.0030000,0.0120000,0.9970000,8.10000,-1.00000,-28.30000
0.077945,-2.3190000,-2.6860000,0.6710000,0.0040000,0.0120000,0.9960000,8.00000,-0.90000,-28.40000
0.128011,-2.3190000,-2.6250000,0.6710000,0.0020000,0.0130000,0.9960000,8.00000,-1.10000,-28.30000
0.180581,-2.3800000,-2.8080000,0.6710000,0.0030000,0.0130000,0.9950000,8.00000,-0.90000,-28.40000
0.227651,-2.3800000,-2.6860000,0.6710000,0.0030000,0.0120000,0.9960000,8.00000,-0.80000,-28.30000
0.277391,-2.3800000,-2.7470000,0.6710000,0.0030000,0.0120000,0.9960000,8.10000,-0.80000,-28.30000
0.327390,-2.4410000,-2.7470000,0.6710000,0.0020000,0.0120000,0.9960000,7.90000,-1.00000,-28.30000
0.382224,-2.3800000,-2.7470000,0.6710000,0.0030000,0.0120000,0.9970000,8.10000,-0.80000,-28.20000
0.427016,-2.3800000,-2.8080000,0.6100000,0.0030000,0.0120000,0.9960000,8.00000,-0.90000,-28.30000
0.478136,-2.3800000,-2.6860000,0.7320000,0.0030000,0.0110000,0.9960000,8.10000,-0.90000,-28.20000
0.535149,-2.3190000,-2.6860000,0.6100000,0.0030000,0.0120000,0.9960000,8.00000,-1.00000,-28.40000
0.578974,-2.7470000,-2.9910000,0.6710000,0.0020000,0.0130000,0.9970000,8.10000,-0.90000,-28.40000
0.626309,-1.5260000,-2.2580000,0.7320000,0.0030000,0.0120000,0.9970000,8.10000,-0.90000,-28.40000
0.676175,-2.3800000,-2.7470000,0.6710000,0.0030000,0.0120000,0.9970000,8.10000,-1.10000,-28.40000
0.729483,-2.3190000,-2.6860000,0.6710000,0.0040000,0.0120000,0.9950000,8.10000,-1.10000,-28.50000
0.779339,-2.3800000,-2.7470000,0.6710000,0.0030000,0.0120000,0.9970000,8.10000,-1.10000,-28.30000
0.826492,-2.3190000,-2.6860000,0.7320000,0.0020000,0.0130000,0.9950000,8.00000,-1.00000,-28.40000
0.875703,-2.3800000,-2.6860000,0.6100000,0.0030000,0.0120000,0.9960000,8.10000,-1.00000,-28.40000
0.925696,-2.3190000,-2.8080000,0.6100000,0.0030000,0.0120000,0.9950000,8.10000,-1.10000,-28.40000
0.979672,-2.3800000,-2.8080000,0.6710000,0.0030000,0.0120000,0.9960000,8.30000,-0.70000,-28.00000
1.029663,-2.3800000,-2.7470000,0.6710000,0.0030000,0.0120000,0.9960000,8.10000,-0.80000,-28.20000
1.078101,-2.3800000,-2.8080000,0.6710000,0.0040000,0.0120000,0.9960000,8.10000,-1.00000,-28.10000
1.124982,-2.4410000,-2.8080000,0.6710000,0.0040000,0.0120000,0.9960000,8.00000,-1.10000,-28.20000
1.174742,-2.4410000,-2.8690000,0.6710000,0.0020000,0.0120000,0.9960000,8.10000,-0.90000,-28.30000
1.224771,-2.3800000,-2.8080000,0.6710000,0.0040000,0.0120000,0.9960000,8.10000,-0.90000,-28.20000
1.276715,-2.4410000,-2.7470000,0.6100000,0.0040000,0.0120000,0.9970000,8.10000,-1.00000,-28.20000
1.325950,-2.3800000,-2.6860000,0.6710000,0.0030000,0.0120000,0.9960000,8.00000,-1.10000,-28.40000
1.374043,-2.3190000,-2.7470000,0.6710000,0.0030000,0.0120000,0.9960000,8.10000,-1.10000,-28.30000
1.432018,-2.3800000,-2.8080000,0.6710000,0.0030000,0.0120000,0.9960000,8.00000,-1.00000,-28.30000
1.473904,-2.4410000,-2.7470000,0.6710000,0.0040000,0.0120000,0.9960000,8.10000,-0.90000,-28.40000
1.526938,-2.3800000,-2.8080000,0.6710000,0.0030000,0.0120000,0.9960000,8.20000,-1.00000,-28.40000
1.573507,-2.3800000,-2.8080000,0.6710000,0.0030000,0.0120000,0.9960000,8.20000,-0.90000,-28.30000
1.625629,-2.3800000,-2.7470000,0.7320000,0.0040000,0.0130000,0.9960000,8.10000,-0.90000,-28.30000
1.694125,-0.0000000,-0.0000000,0.0000000,0.0040000,0.0110000,0.9950000,8.20000,-0.80000,-28.30000
1.743971,-0.0000000,-0.0000000,0.0000000,0.0020000,0.0130000,0.9950000,8.20000,-0.90000,-28.30000
1.795403,-0.0000000,-0.0000000,0.0000000,0.0020000,0.0110000,0.9960000,8.00000,-0.90000,-28.30000
1.853192,-0.0610000,-0.1830000,0.0000000,0.0020000,0.0140000,0.9970000,8.10000,-0.90000,-28.40000
1.930210,-0.0000000,0.0610000,0.0000000,0.0020000,0.0120000,0.9960000,8.10000,-1.10000,-28.30000
1.943718,0.0610000,0.0610000,0.0000000,0.0030000,0.0130000,0.9960000,8.10000,-1.00000,-28.10000
1.993216,-0.0610000,-0.0000000,0.0000000,0.0020000,0.0130000,0.9950000,8.00000,-0.80000,-28.10000
2.044990,-0.0000000,-0.0610000,0.0610000,0.0030000,0.0130000,0.9950000,8.00000,-1.00000,-28.30000
2.092942,-0.0000000,-0.0000000,0.0000000,0.0030000,0.0120000,0.9960000,8.00000,-0.90000,-28.40000
2.144315,-1.0380000,-0.5490000,-66.7720000,0.0050000,0.0460000,0.9890000,8.10000,-0.80000,-28.30000
2.205379,0.3050000,-0.0000000,0.0000000,0.0030000,0.0120000,0.9950000,8.00000,-0.80000,-28.30000
2.246082,-0.0000000,0.0610000,0.0000000,0.0030000,0.0120000,0.9960000,8.10000,-0.80000,-28.40000
2.306063,0.0610000,0.1220000,0.0000000,0.0030000,0.0130000,0.9960000,8.10000,-0.80000,-28.30000
2.342579,-0.0000000,-0.0000000,0.0610000,0.0030000,0.0130000,0.9960000,8.20000,-0.80000,-28.30000
2.392005,-0.0000000,-0.0000000,0.0000000,0.0020000,0.0100000,0.9950000,7.90000,-0.80000,-28.20000
2.443900,-0.1220000,-0.0610000,-12.1460000,0.0130000,0.0200000,0.9940000,8.00000,-0.70000,-28.30000
2.491645,-0.0000000,-0.0000000,0.1220000,0.0020000,0.0130000,0.9950000,8.30000,-0.60000,-28.20000
2.542172,-0.0000000,0.1220000,0.1220000,0.0020000,0.0120000,0.9960000,8.30000,-0.60000,-28.40000
2.595197,0.1220000,0.5490000,0.1220000,0.0040000,0.0130000,0.9970000,8.40000,-0.60000,-28.20000
2.643115,0.1830000,0.1220000,0.0610000,0.0070000,0.0050000,0.9950000,8.20000,-0.50000,-28.40000
2.691296,-0.0610000,-0.0000000,0.0610000,0.0030000,0.0110000,0.9950000,8.30000,-0.50000,-28.50000
2.746317,-0.0000000,-0.0000000,0.0610000,0.0030000,0.0120000,0.9960000,8.20000,-0.60000,-28.50000
2.790924,-0.0000000,-0.0000000,0.0000000,0.0030000,0.0120000,0.9950000,8.10000,-0.50000,-28.30000
2.842593,-0.0000000,-0.0000000,0.0000000,0.0030000,0.0120000,0.9960000,8.00000,-0.50000,-28.40000
2.890895,-0.0610000,-0.0610000,0.0610000,0.0030000,0.0110000,0.9960000,8.10000,-0.40000,-28.30000
2.940434,-0.0000000,-0.0000000,0.0000000,0.0020000,0.0120000,0.9960000,8.20000,-0.50000,-28.30000
2.990687,-0.0000000,-0.0000000,0.0610000,0.0020000,0.0120000,0.9960000,8.00000,-0.50000,-28.40000
3.042213,-0.0000000,-0.0000000,0.0610000,0.0030000,0.0120000,0.9960000,8.10000,-0.60000,-28.40000
3.090140,-0.1220000,-0.0610000,0.0000000,0.0030000,0.0120000,0.9960000,8.20000,-0.60000,-28.50000
3.139944,-0.0000000,-0.0000000,0.0000000,0.0020000,0.0120000,0.9960000,8.20000,-0.70000,-28.40000
3.189952,-0.0610000,-0.0000000,0.0000000,0.0020000,0.0120000,0.9950000,8.20000,-0.60000,-28.30000
3.239612,-0.0000000,-0.0000000,0.0610000,0.0030000,0.0120000,0.9960000,8.20000,-0.60000,-28.30000
3.289528,-0.0000000,-0.0610000,0.0610000,0.0020000,0.0110000,0.9960000,8.20000,-0.40000,-28.30000
3.340345,-0.0000000,-0.0610000,0.0000000,0.0030000,0.0120000,0.9950000,8.00000,-0.60000,-28.30000
3.389215,-0.0000000,-0.0000000,0.0000000,0.0030000,0.0120000,0.9970000,8.10000,-0.50000,-28.40000
3.438978,-0.0000000,-0.0000000,0.0000000,0.0040000,0.0120000,0.9970000,8.10000,-0.60000,-28.30000
3.491579,-0.0000000,-0.0000000,0.0610000,0.0030000,0.0120000,0.9950000,8.10000,-0.40000,-28.30000
3.539303,-0.0610000,-0.0000000,0.0610000,0.0020000,0.0120000,0.9960000,8.10000,-0.40000,-28.40000
3.588804,-0.0610000,-0.0000000,0.0000000,0.0020000,0.0120000,0.9960000,8.20000,-0.40000,-28.30000
3.638809,-0.0610000,-0.0000000,0.0000000,0.0030000,0.0130000,0.9960000,8.00000,-0.40000,-28.40000
3.688598,-0.0610000,-0.0610000,0.0610000,0.0020000,0.0120000,0.9950000,8.10000,-0.40000,-28.40000
3.738156,-0.0000000,-0.0000000,0.0610000,0.0020000,0.0110000,0.9950000,8.10000,-0.50000,-28.20000
3.788239,-0.0000000,-0.0000000,0.0000000,0.0020000,0.0110000,0.9960000,8.10000,-0.50000,-28.30000
3.837986,-0.0610000,-0.0610000,0.0000000,0.0030000,0.0130000,0.9950000,8.20000,-0.40000,-28.30000
3.888153,-0.0000000,-0.0000000,0.0610000,0.0030000,0.0120000,0.9960000,8.20000,-0.40000,-28.30000
3.938402,-0.1220000,-0.1220000,0.0610000,0.0030000,0.0120000,0.9950000,8.30000,-0.50000,-28.30000
3.989162,-0.0000000,-0.0000000,0.0000000,0.0030000,0.0130000,0.9950000,8.10000,-0.50000,-28.30000
4.037301,-0.0000000,-0.0000000,0.0000000,0.0030000,0.0130000,0.9950000,8.20000,-0.40000,-28.40000
4.088135,-0.0000000,-0.0610000,0.0000000,0.0030000,0.0120000,0.9950000,8.00000,-0.50000,-28.30000
4.137249,-0.1220000,-0.1220000,0.0000000,0.0020000,0.0120000,0.9960000,8.10000,-0.40000,-28.40000
4.189572,-0.0000000,-0.0000000,0.0000000,0.0030000,0.0120000,0.9950000,8.10000,-0.50000,-28.40000
4.236811,-0.0610000,-0.0610000,0.0000000,0.0030000,0.0110000,0.9960000,8.00000,-0.50000,-28.30000
4.288805,-0.0610000,-0.0610000,0.0000000,0.0030000,0.0110000,0.9950000,8.10000,-0.50000,-28.40000
4.336753,-0.0610000,-0.0610000,0.0610000,0.0030000,0.0120000,0.9960000,8.00000,-0.60000,-28.40000
4.386612,-0.0610000,-0.0610000,0.0610000,0.0030000,0.0110000,0.9960000,8.10000,-0.60000,-28.40000
4.436233,-0.0610000,-0.0610000,0.0000000,0.0030000,0.0110000,0.9950000,8.30000,-0.80000,-28.20000
4.486467,-0.0610000,-0.0610000,0.0000000,0.0020000,0.0120000,0.9950000,8.20000,-0.50000,-28.20000
4.536577,-0.2440000,-0.2440000,0.0000000,0.0030000,0.0120000,0.9960000,8.10000,-0.60000,-28.30000
4.590652,-0.3050000,-0.4270000,-0.0610000,0.0070000,0.0120000,0.9910000,8.10000,-0.60000,-28.40000
4.635979,-0.6100000,-0.6100000,-24.2920000,0.0240000,0.0260000,0.9970000,8.00000,-0.50000,-28.40000
4.692040,0.3050000,0.2440000,0.0610000,0.0020000,0.0120000,0.9950000,8.00000,-0.40000,-28.20000
4.735616,0.6100000,0.0610000,0.0000000,0.0030000,0.0140000,0.9950000,8.20000,-0.30000,-28.30000
4.790962,-0.0000000,-0.0610000,-15.8080000,0.0240000,-0.0170000,0.9950000,8.20000,-0.30000,-28.30000
4.835184,-0.0000000,-0.0000000,0.0610000,0.0030000,0.0110000,0.9950000,8.10000,-0.10000,-28.30000
4.885221,0.2440000,-0.0000000,0.0000000,0.0020000,0.0120000,0.9950000,8.10000,-0.20000,-28.30000
4.935634,-0.6100000,-0.3050000,-23.9870000,0.0070000,0.0210000,0.9940000,8.00000,-0.20000,-28.40000
4.990251,-0.0610000,-0.0000000,0.1220000,0.0020000,0.0120000,0.9950000,8.00000,-0.30000,-28.30000
5.035238,-1.6480000,-0.7320000,-51.0860000,-0.0100000,0.0600000,0.9950000,8.30000,-0.20000,-28.40000
5.084945,0.1220000,-0.0000000,0.0610000,0.0010000,0.0110000,0.9960000,8.10000,-0.10000,-28.30000
5.135030,0.0610000,0.2440000,0.0610000,0.0010000,0.0150000,0.9930000,8.30000,0.00000,-28.40000
5.184204,-0.4880000,-0.0000000,0.0610000,0.0010000,0.0130000,0.9960000,8.20000,0.00000,-28.30000
5.234141,-3.1130000,-1.2820000,0.0610000,0.0020000,0.0090000,0.9950000,8.10000,0.00000,-28.50000
5.284864,-0.0000000,-0.0000000,0.0000000,0.0020000,0.0110000,0.9960000,8.30000,-0.10000,-28.30000
5.336150,-0.0000000,-0.0000000,0.0610000,0.0010000,0.0110000,0.9950000,8.10000,0.00000,-28.30000
5.398657,-0.0610000,-0.0000000,0.0610000,0.0030000,0.0110000,0.9950000,8.30000,0.00000,-28.20000
5.433588,-0.0610000,-0.0000000,0.0610000,0.0030000,0.0120000,0.9960000,8.40000,-0.10000,-28.50000
5.485011,-0.0610000,-0.0000000,0.0000000,0.0030000,0.0120000,0.9960000,8.20000,0.00000,-28.40000
5.533232,-0.0610000,-0.0000000,0.0000000,0.0020000,0.0110000,0.9960000,8.20000,-0.10000,-28.40000
5.584755,-0.0610000,-0.0000000,0.0610000,0.0020000,0.0110000,0.9950000,8.30000,-0.10000,-28.30000
5.633216,-0.0610000,-0.0610000,0.0000000,0.0030000,0.0110000,0.9950000,8.20000,0.00000,-28.40000
5.682917,-0.0610000,-0.0610000,0.0610000,0.0030000,0.0110000,0.9950000,8.30000,-0.10000,-28.40000
5.732713,-0.0610000,-0.0000000,0.0000000,0.0030000,0.0110000,0.9950000,8.10000,-0.20000,-28.30000
5.782522,-0.0610000,-0.0610000,0.0000000,0.0030000,0.0110000,0.9950000,8.20000,0.00000,-28.30000
5.836468,-0.1220000,-0.0610000,0.0000000,0.0020000,0.0120000,0.9960000,8.30000,-0.10000,-28.30000
5.893014,-0.0000000,-0.0000000,0.0000000,0.0020000,0.0120000,0.9950000,8.30000,0.00000,-28.30000
5.942789,-0.1220000,-0.0000000,0.0000000,0.0000000,0.0110000,0.9950000,8.10000,0.00000,-28.30000
5.982141,-0.1830000,-0.1220000,0.0610000,0.0020000,0.0110000,0.9950000,8.20000,0.00000,-28.30000
6.032962,-0.0610000,-0.0000000,0.0610000,0.0020000,0.0100000,0.9950000,8.20000,0.00000,-28.50000
6.081872,-0.0610000,-0.0610000,0.0610000,0.0030000,0.0140000,0.9960000,8.10000,0.00000,-28.40000
6.144971,-0.1220000,-0.0610000,0.0610000,0.0030000,0.0100000,0.9960000,8.00000,-0.10000,-28.40000
6.181375,-0.0000000,-0.0000000,0.0610000,0.0010000,0.0090000,0.9940000,8.00000,-0.10000,-28.30000
6.236526,-0.0610000,-0.0000000,0.0610000,0.0030000,0.0120000,0.9960000,8.00000,-0.10000,-28.40000
6.281307,-0.1220000,-0.0000000,0.0610000,0.0020000,0.0120000,0.9950000,8.20000,-0.10000,-28.40000
6.331725,-0.0610000,-0.0610000,0.0610000,0.0020000,0.0130000,0.9940000,8.30000,0.00000,-28.40000
6.382726,-0.0000000,-0.0610000,0.0000000,0.0030000,0.0120000,0.9960000,8.30000,0.00000,-28.30000
6.431786,-0.0610000,-0.0610000,0.0610000,0.0010000,0.0110000,0.9950000,8.30000,0.00000,-28.30000
6.483302,-0.0610000,-0.0000000,0.0610000,0.0020000,0.0120000,0.9960000,8.30000,0.00000,-28.40000
6.536915,-0.0610000,-0.0610000,0.0000000,0.0020000,0.0120000,0.9950000,8.30000,0.00000,-28.40000
6.582950,-0.0000000,-0.0610000,0.0610000,0.0030000,0.0120000,0.9950000,8.30000,0.00000,-28.30000
6.631845,-0.1220000,-0.0610000,0.0610000,0.0020000,0.0120000,0.9960000,8.20000,0.00000,-28.50000
6.680287,-0.0610000,-0.1220000,0.0000000,0.0020000,0.0120000,0.9950000,8.20000,0.00000,-28.40000
6.730285,-0.0610000,-0.0000000,0.0610000,0.0010000,0.0120000,0.9950000,8.20000,0.00000,-28.30000
6.779858,-0.0000000,-0.0000000,0.0000000,0.0010000,0.0120000,0.9950000,8.20000,-0.10000,-28.30000
6.830275,0.3050000,-0.0000000,0.0000000,0.0030000,0.0120000,0.9960000,8.10000,0.00000,-28.40000
6.889368,-0.0000000,-0.1830000,0.0000000,0.0000000,0.0130000,0.9950000,8.10000,-0.20000,-28.30000
6.929610,0.1830000,-0.0610000,-0.5490000,0.0040000,0.0050000,0.9960000,8.10000,-0.20000,-28.30000
6.979674,0.2440000,0.0610000,0.0000000,0.0020000,0.0130000,0.9960000,8.20000,0.00000,-28.40000
7.029580,-0.1830000,-0.0000000,0.0610000,0.0030000,0.0120000,0.9950000,8.20000,0.00000,-28.40000
7.090847,-0.1830000,-0.0000000,0.0610000,0.0020000,0.0120000,0.9950000,8.30000,0.00000,-28.40000
7.152732,-1.2820000,-0.3050000,0.1830000,0.0030000,0.0120000,0.9950000,8.30000,0.00000,-28.50000
7.179815,0.0610000,0.1220000,0.0000000,0.0030000,0.0100000,0.9960000,8.10000,0.00000,-28.40000
7.229603,-0.3050000,-0.1220000,0.0610000,0.0060000,0.0050000,0.9940000,8.10000,0.00000,-28.40000
7.278673,-0.1220000,-0.0610000,0.0610000,0.0030000,0.0120000,0.9960000,8.00000,0.00000,-28.30000
7.341699,-0.0610000,-0.1220000,0.0000000,0.0030000,0.0100000,0.9950000,8.20000,0.10000,-28.30000
7.378239,-0.0610000,-0.0610000,0.0000000,0.0030000,0.0120000,0.9950000,8.20000,0.00000,-28.50000
7.442768,-0.1220000,-0.0610000,0.0610000,0.0030000,0.0110000,0.9940000,8.40000,0.00000,-28.30000
7.478212,-0.1220000,-0.0610000,0.0000000,0.0030000,0.0110000,0.9950000,8.30000,0.00000,-28.30000
7.527948,-0.0610000,-0.0000000,0.0610000,0.0020000,0.0100000,0.9950000,8.20000,0.00000,-28.30000
7.580178,-0.1220000,-0.0610000,0.0000000,0.0020000,0.0110000,0.9950000,8.30000,0.00000,-28.30000
7.633948,-0.0610000,-0.0000000,0.0000000,0.0020000,0.0110000,0.9960000,8.30000,0.00000,-28.30000
7.677235,-0.1220000,-0.0610000,0.0000000,0.0030000,0.0110000,0.9950000,8.20000,0.00000,-28.40000
7.727357,-0.0610000,-0.0610000,0.0000000,0.0020000,0.0110000,0.9960000,8.20000,0.00000,-28.50000
7.777837,-0.0610000,-0.0000000,0.0610000,0.0020000,0.0120000,0.9950000,8.20000,0.10000,-28.40000
7.827302,-0.0000000,-0.0000000,0.0610000,0.0020000,0.0110000,0.9960000,8.30000,0.00000,-28.40000
7.880652,-0.1220000,-0.0000000,0.0610000,0.0020000,0.0120000,0.9950000,8.20000,0.00000,-28.30000
7.926713,-0.1830000,-0.1220000,0.0000000,0.0030000,0.0110000,0.9950000,8.40000,0.10000,-28.40000
7.976842,-0.0610000,-0.0610000,0.0610000,0.0020000,0.0110000,0.9960000,8.20000,0.00000,-28.40000
8.033477,-0.0610000,-0.0610000,0.0000000,0.0020000,0.0110000,0.9960000,8.10000,0.10000,-28.30000
8.076584,-0.1830000,-0.1220000,0.0610000,0.0020000,0.0120000,0.9950000,8.10000,-0.40000,-27.90000
8.126221,-0.1220000,-0.0610000,0.0610000,0.0020000,0.0110000,0.9960000,8.00000,-0.20000,-28.10000
8.176055,-0.0610000,-0.0000000,0.0000000,0.0020000,0.0120000,0.9950000,8.00000,-0.10000,-28.30000
8.226895,-0.1220000,-0.0610000,0.0610000,0.0020000,0.0110000,0.9950000,8.10000,-0.10000,-28.40000
8.276319,-0.0610000,-0.0000000,0.0610000,0.0020000,0.0120000,0.9950000,8.10000,0.00000,-28.30000
8.329984,-0.1220000,-0.1220000,0.0000000,0.0020000,0.0110000,0.9960000,8.10000,0.00000,-28.40000
8.380522,-0.0000000,-0.0000000,0.0000000,0.0020000,0.0110000,0.9950000,8.10000,0.00000,-28.50000
8.425170,-0.0000000,-0.0000000,0.0000000,0.0030000,0.0110000,0.9950000,8.20000,0.00000,-28.40000
8.476553,-0.0000000,-0.0000000,0.0000000,0.0020000,0.0110000,0.9950000,8.20000,0.00000,-28.30000
8.526950,-0.0000000,-0.0000000,0.0000000,0.0020000,0.0120000,0.9960000,8.30000,0.00000,-28.30000
8.576939,-0.0000000,-0.0000000,0.0000000,0.0020000,0.0110000,0.9960000,8.30000,0.00000,-28.30000
8.624819,-0.0000000,-0.0000000,0.0000000,0.0020000,0.0110000,0.9940000,8.20000,0.00000,-28.30000
8.676582,-0.0000000,-0.0000000,0.0000000,0.0030000,0.0110000,0.9950000,8.10000,0.00000,-28.40000
8.724585,-0.0000000,-0.0000000,0.0000000,0.0010000,0.0120000,0.9960000,8.20000,0.00000,-28.30000
8.790958,0.3050000,-0.0000000,0.0000000,0.0020000,0.0110000,0.9960000,8.30000,0.00000,-28.40000
8.824584,-0.0610000,-0.1830000,0.0000000,0.0010000,0.0140000,0.9960000,8.10000,0.00000,-28.40000
8.874193,0.0610000,-0.0000000,0.0000000,0.0010000,0.0130000,0.9950000,8.20000,0.00000,-28.30000
8.924252,0.1220000,0.1220000,-0.0610000,0.0030000,0.0120000,0.9960000,8.20000,0.00000,-28.40000
8.976069,-0.6100000,-0.3660000,-33.5690000,-0.0250000,-0.0460000,0.9970000,8.30000,0.00000,-28.40000
9.023941,-0.1220000,-0.0000000,-9.7660000,-0.0000000,0.0160000,0.9940000,8.20000,0.00000,-28.40000
9.073797,-0.7320000,-0.1830000,0.0000000,0.0020000,0.0130000,0.9960000,8.10000,0.00000,-28.60000
9.123699,-0.9770000,-0.3660000,0.0610000,0.0030000,0.0090000,0.9950000,8.10000,0.10000,-28.50000
9.173519,0.3050000,0.1220000,0.0000000,0.0030000,0.0110000,0.9950000,8.20000,0.10000,-28.50000
9.223387,0.1220000,-0.0000000,0.0000000,0.0020000,0.0120000,0.9950000,8.30000,0.10000,-28.40000
9.273216,0.3660000,0.1220000,0.0000000,0.0020000,0.0120000,0.9950000,8.40000,0.10000,-28.40000
9.323050,0.2440000,-0.0000000,0.0000000,0.0020000,0.0090000,0.9950000,8.20000,0.10000,-28.40000
9.372862,-0.0000000,-0.0610000,-3.3570000,0.0070000,0.0160000,0.9960000,8.20000,0.10000,-28.30000
9.422691,-0.1830000,-0.0000000,0.0000000,0.0010000,0.0130000,0.9960000,8.20000,0.10000,-28.30000
9.472532,-0.1220000,-0.0000000,0.0000000,0.0020000,0.0110000,0.9960000,8.20000,0.10000,-28.40000
9.543301,-0.2440000,-0.1830000,-0.0610000,0.0050000,0.0110000,0.9960000,8.30000,0.20000,-28.40000
9.572485,0.1220000,0.1220000,0.0610000,0.0020000,0.0110000,0.9960000,8.40000,0.10000,-28.20000
9.626237,-0.4880000,-0.4270000,0.0000000,-0.0000000,0.0190000,0.9940000,8.40000,0.10000,-28.30000
9.673950,1.9530000,0.7320000,-4.2720000,-0.0020000,0.1040000,0.9930000,8.30000,0.20000,-28.40000
9.722423,-0.2440000,-0.1830000,-9.3380000,-0.0270000,-0.0590000,0.9940000,8.40000,0.30000,-28.30000
9.774542,-0.9160000,-0.3660000,0.0000000,0.0020000,0.0130000,0.9970000,8.30000,0.30000,-28.30000
9.822004,-0.6710000,-0.3050000,0.0000000,0.0020000,0.0130000,0.9960000,8.20000,0.30000,-28.40000
9.871672,-1.0380000,-0.4880000,0.0610000,0.0010000,0.0120000,0.9950000,8.50000,0.50000,-28.40000
9.921569,-1.4650000,-0.5490000,0.0000000,0.0090000,-0.0010000,0.9930000,8.40000,0.30000,-28.50000
9.972946,0.3050000,0.1220000,0.0000000,0.0160000,-0.0220000,0.9890000,8.30000,0.40000,-28.40000
10.021497,-0.0000000,-0.0610000,0.0000000,0.0010000,0.0120000,0.9940000,8.30000,0.40000,-28.50000
10.070823,-0.0000000,-0.0610000,0.0000000,0.0020000,0.0110000,0.9960000,8.00000,0.20000,-28.20000
10.121382,-0.0000000,-0.0610000,0.0000000,0.0010000,0.0110000,0.9950000,8.30000,0.20000,-28.30000
10.171771,-0.0000000,-0.0000000,0.0000000,0.0010000,0.0100000,0.9940000,8.40000,0.30000,-28.40000
10.220565,-0.0000000,-0.0000000,0.0000000,0.0020000,0.0100000,0.9960000,8.30000,0.30000,-28.40000
10.270484,-0.0000000,-0.0000000,0.0000000,0.0020000,0.0110000,0.9950000,8.20000,0.30000,-28.40000
10.325140,-0.0000000,-0.0000000,0.0000000,0.0030000,0.0100000,0.9960000,8.20000,0.30000,-28.40000
10.372929,-0.0000000,-0.0000000,0.0000000,0.0020000,0.0120000,0.9960000,8.20000,0.30000,-28.50000
10.420566,-0.1220000,-0.1830000,0.0000000,0.0030000,0.0100000,0.9950000,8.40000,0.30000,-28.50000
10.471226,-0.0000000,-0.0000000,0.0000000,0.0020000,0.0100000,0.9950000,8.40000,0.50000,-28.40000
10.519539,-0.1220000,-0.0610000,0.0000000,0.0030000,0.0110000,0.9950000,8.30000,0.40000,-28.30000
10.573996,-0.2440000,-0.1220000,0.0000000,0.0020000,0.0110000,0.9950000,8.30000,0.40000,-28.30000
10.620453,-0.0000000,-0.0000000,0.0000000,0.0020000,0.0110000,0.9960000,8.20000,0.30000,-28.40000
10.669396,-0.0000000,-0.0000000,0.0000000,0.0020000,0.0100000,0.9960000,8.10000,0.40000,-28.40000
10.719245,-0.0000000,-0.0000000,0.0000000,0.0020000,0.0130000,0.9950000,8.10000,0.30000,-28.40000
10.772168,-0.0000000,-0.0000000,0.0000000,0.0020000,0.0120000,0.9950000,8.20000,0.30000,-28.50000
10.822551,-0.0000000,-0.0000000,0.0000000,0.0020000,0.0110000,0.9960000,8.20000,0.40000,-28.40000
10.868941,-0.0000000,-0.0000000,0.0000000,0.0030000,0.0120000,0.9950000,8.30000,0.30000,-28.40000
10.918769,-0.0000000,-0.0000000,0.0000000,0.0010000,0.0100000,0.9960000,8.30000,0.20000,-28.40000
10.968707,-0.0000000,-0.0000000,0.0000000,0.0010000,0.0110000,0.9950000,8.20000,0.40000,-28.40000
11.020177,-0.0000000,-0.0000000,0.0000000,0.0020000,0.0110000,0.9950000,8.20000,0.30000,-28.50000
11.068876,-0.0000000,-0.0000000,0.0000000,0.0010000,0.0110000,0.9950000,8.20000,0.30000,-28.40000
11.118129,0.0610000,-0.0000000,0.0000000,0.0030000,0.0110000,0.9950000,8.30000,0.50000,-28.40000
11.188084,-0.0000000,-0.0610000,0.0000000,0.0010000,0.0110000,0.9950000,8.20000,0.30000,-28.30000
11.217792,-0.1220000,-0.1220000,0.0000000,0.0010000,0.0110000,0.9960000,8.20000,0.40000,-28.30000
11.267983,-0.0000000,0.0610000,0.0610000,0.0020000,0.0110000,0.9960000,8.30000,0.40000,-28.50000
11.317637,-0.1830000,-0.1220000,0.0000000,0.0020000,0.0110000,0.9950000,8.30000,0.30000,-28.40000
11.367723,-0.3050000,-0.1830000,0.0610000,0.0020000,0.0110000,0.9940000,8.30000,0.30000,-28.50000
11.417997,-0.1220000,-0.0000000,0.0000000,0.0020000,0.0110000,0.9960000,8.30000,0.40000,-28.40000
11.467707,0.8540000,0.3660000,10.2540000,0.0170000,-0.0030000,0.9960000,8.30000,0.20000,-28.40000
11.517233,0.9770000,0.4880000,14.2210000,0.0130000,0.0010000,0.9960000,8.30000,0.30000,-28.40000
11.567232,-0.0610000,-0.0610000,0.0000000,0.0020000,0.0110000,0.9950000,8.30000,0.20000,-28.40000
11.669011,-0.1830000,-0.0610000,0.0000000,0.0020000,0.0110000,0.9950000,8.40000,0.40000,-28.20000
11.669282,-0.0000000,-0.1220000,0.0000000,0.0020000,0.0110000,0.9950000,8.40000,0.30000,-28.20000
11.716664,-0.0000000,-0.0000000,0.0000000,0.0020000,0.0120000,0.9950000,8.20000,0.30000,-28.30000
11.767761,0.0610000,-0.0000000,0.0000000,0.0020000,0.0110000,0.9960000,8.20000,0.30000,-28.40000
11.816391,0.1220000,-0.0000000,0.0000000,0.0020000,0.0120000,0.9950000,8.20000,0.30000,-28.40000
11.866500,-0.0610000,-0.0000000,0.0000000,0.0010000,0.0100000,0.9950000,8.20000,0.20000,-28.30000
11.916160,-0.0000000,-0.0000000,0.0000000,0.0020000,0.0120000,0.9950000,8.20000,0.30000,-28.40000
11.979116,0.0610000,0.0610000,0.0610000,0.0020000,0.0130000,0.9950000,8.30000,0.20000,-28.30000
12.018540,-0.1220000,-0.1220000,0.0000000,0.0010000,0.0120000,0.9950000,8.30000,0.10000,-28.30000
12.066209,-0.5490000,-0.3050000,-0.2440000,0.0040000,0.0060000,0.9940000,8.20000,0.20000,-28.40000
12.117059,-0.0000000,-0.0000000,0.0000000,0.0010000,0.0120000,0.9950000,8.30000,0.20000,-28.30000
12.166203,-0.1220000,-0.0610000,0.0000000,0.0010000,0.0120000,0.9950000,8.40000,0.20000,-28.40000
12.215542,0.0610000,-0.0000000,0.0000000,0.0010000,0.0110000,0.9950000,8.10000,0.20000,-28.50000
12.268564,-0.1220000,-0.0610000,0.0000000,0.0010000,0.0120000,0.9950000,8.30000,0.30000,-28.50000
12.316289,-0.0000000,-0.0000000,0.0000000,0.0020000,0.0110000,0.9940000,8.30000,0.20000,-28.50000
12.366109,-0.0000000,-0.0610000,0.0000000,0.0030000,0.0120000,0.9950000,8.40000,0.20000,-28.50000
12.416720,-0.0610000,-0.0000000,0.0000000,0.0020000,0.0120000,0.9950000,8.30000,0.20000,-28.40000
12.464604,-0.1220000,-0.0000000,0.0000000,0.0020000,0.0110000,0.9950000,8.20000,0.30000,-28.40000
12.519562,-0.0000000,-0.0000000,0.0000000,0.0030000,0.0090000,0.9950000,8.20000,0.20000,-28.30000
12.564537,-0.1830000,-0.0610000,0.0000000,0.0030000,0.0100000,0.9960000,8.20000,0.30000,-28.30000
12.615108,-0.4880000,-0.1830000,0.0000000,0.0010000,0.0130000,0.9950000,8.20000,0.40000,-28.40000
12.664007,-0.0000000,-0.0000000,0.0000000,0.0020000,0.0120000,0.9950000,8.20000,0.30000,-28.30000
12.714177,-0.0610000,-0.0000000,0.0000000,0.0010000,0.0120000,0.9950000,8.20000,0.20000,-28.40000
12.764152,-0.0000000,-0.0000000,0.0000000,0.0020000,0.0110000,0.9950000,8.30000,0.10000,-28.30000
12.814131,-0.0000000,-0.0000000,0.0000000,0.0010000,0.0110000,0.9950000,8.10000,0.20000,-28.40000
12.863828,-0.0610000,-0.0610000,-0.0610000,0.0010000,0.0120000,0.9950000,8.20000,0.10000,-28.30000
12.913692,0.1220000,-0.0000000,0.0000000,0.0010000,0.0120000,0.9950000,8.20000,0.10000,-28.30000
12.972676,0.3660000,-0.0000000,0.0000000,0.0020000,0.0110000,0.9960000,8.30000,0.20000,-28.40000
13.016328,-0.0000000,-0.0610000,0.0000000,0.0010000,0.0120000,0.9950000,8.30000,0.20000,-28.40000
13.065564,-0.0000000,-0.0000000,0.0000000,0.0010000,0.0120000,0.9950000,8.30000,0.30000,-28.40000
13.116109,0.0610000,-0.0000000,0.0000000,0.0010000,0.0130000,0.9950000,8.20000,0.30000,-28.40000
13.162922,-0.1830000,-0.0000000,0.0000000,0.0010000,0.0120000,0.9950000,8.30000,0.30000,-28.30000
13.212919,-0.1220000,-0.1830000,0.0000000,0.0020000,0.0130000,0.9950000,8.30000,0.10000,-28.30000
13.262636,-0.0000000,-0.0000000,0.0000000,0.0020000,0.0120000,0.9960000,8.30000,0.10000,-28.30000
13.312605,0.1220000,-0.0000000,0.0000000,0.0020000,0.0110000,0.9950000,8.20000,0.20000,-28.40000
13.376526,-0.0000000,-0.0610000,0.0000000,0.0010000,0.0130000,0.9950000,8.10000,0.20000,-28.30000
13.436091,-0.1220000,-0.1220000,0.0000000,0.0020000,0.0130000,0.9950000,8.30000,0.20000,-28.30000
13.465938,-0.1220000,-0.0610000,0.0000000,0.0010000,0.0110000,0.9960000,8.30000,0.20000,-28.20000
13.512091,-0.0610000,-0.0000000,0.0000000,0.0010000,0.0110000,0.9950000,8.40000,0.30000,-28.30000
13.561503,-0.0000000,-0.0000000,0.0000000,0.0020000,0.0120000,0.9950000,8.30000,0.20000,-28.30000
13.613820,0.0610000,-0.0000000,0.0000000,0.0010000,0.0120000,0.9960000,8.30000,0.30000,-28.30000
13.667961,-0.1220000,-0.1220000,0.0000000,0.0010000,0.0110000,0.9950000,8.30000,0.30000,-28.10000
13.713611,-0.1830000,-0.1220000,0.0000000,0.0020000,0.0110000,0.9950000,8.30000,0.30000,-28.30000
13.761535,0.0610000,-0.0000000,0.0610000,0.0020000,0.0110000,0.9950000,8.40000,0.40000,-28.20000
13.812615,-0.0610000,-0.0000000,0.0000000,0.0020000,0.0130000,0.9960000,8.20000,0.20000,-28.30000
13.875125,-0.1220000,-0.1220000,0.0000000,0.0020000,0.0120000,0.9950000,8.20000,0.30000,-28.30000
13.911010,-0.0000000,-0.0000000,0.0000000,0.0010000,0.0130000,0.9950000,8.20000,0.20000,-28.40000
13.960985,-0.1830000,-0.0610000,0.0000000,0.0020000,0.0120000,0.9950000,8.20000,0.20000,-28.30000
14.012668,-0.0610000,-0.0610000,0.0000000,0.0020000,0.0120000,0.9950000,8.20000,0.20000,-28.20000
14.060544,-0.0000000,-0.0000000,0.0000000,0.0020000,0.0130000,0.9950000,8.40000,0.20000,-28.30000
14.123225,-0.0000000,-0.0000000,0.0000000,0.0030000,0.0120000,0.9950000,8.30000,0.30000,-28.30000
14.160468,-0.0610000,-0.0610000,0.0000000,0.0010000,0.0110000,0.9950000,8.30000,0.30000,-28.30000
14.213485,-0.0000000,-0.0610000,0.0000000,0.0010000,0.0110000,0.9960000,8.30000,0.30000,-28.30000
14.260171,-0.0000000,-0.0000000,0.0000000,0.0030000,0.0130000,0.9960000,8.30000,0.20000,-28.40000
14.311673,-0.1220000,-0.0000000,0.0000000,0.0020000,0.0120000,0.9950000,8.40000,0.10000,-28.40000
14.371322,-0.0610000,-0.0000000,0.0000000,0.0010000,0.0110000,0.9940000,8.40000,0.20000,-28.30000
14.410157,-0.1220000,-0.0610000,0.0000000,0.0020000,0.0120000,0.9950000,8.40000,0.30000,-28.20000
14.459680,-0.0000000,-0.0610000,0.0000000,0.0020000,0.0120000,0.9960000,8.30000,0.40000,-28.30000
14.521480,-0.0610000,-0.0610000,0.0000000,0.0010000,0.0130000,0.9960000,8.20000,0.40000,-28.30000
14.564825,-0.3050000,-0.1220000,0.0610000,0.0020000,0.0120000,0.9950000,8.10000,0.30000,-28.40000
14.608987,-0.1220000,-0.0610000,0.0610000,0.0010000,0.0110000,0.9950000,8.30000,0.20000,-28.40000
14.659741,-0.0000000,-0.0000000,0.0000000,0.0010000,0.0130000,0.9950000,8.30000,0.20000,-28.40000
14.708686,0.2440000,-0.0000000,0.0000000,0.0030000,0.0070000,0.9950000,8.50000,0.10000,-28.30000
14.769192,-0.4270000,-0.2440000,0.0610000,0.0000000,0.0140000,0.9950000,8.20000,0.20000,-28.40000
14.827882,-0.1220000,-0.1220000,0.0000000,0.0010000,0.0120000,0.9950000,8.20000,0.10000,-28.30000
14.860108,-0.1220000,-0.0610000,0.0000000,0.0010000,0.0120000,0.9960000,8.20000,0.20000,-28.30000
14.908641,-0.1830000,-0.0610000,0.0000000,0.0010000,0.0110000,0.9950000,8.30000,0.20000,-28.40000
14.958434,-0.0610000,-0.0000000,0.0000000,0.0010000,0.0110000,0.9950000,8.20000,0.40000,-28.50000
15.008101,-0.1830000,-0.0610000,0.0000000,0.0010000,0.0110000,0.9960000,8.20000,0.40000,-28.30000
15.061433,-0.1830000,-0.0610000,0.0000000,0.0010000,0.0110000,0.9940000,8.20000,0.50000,-28.30000
15.107941,-0.1220000,-0.1220000,0.0000000,0.0010000,0.0120000,0.9950000,8.10000,0.40000,-28.20000
15.157965,-0.0610000,-0.0610000,0.0000000,0.0010000,0.0120000,0.9950000,8.20000,0.30000,-28.30000
15.207661,-0.0000000,-0.0610000,0.0000000,0.0010000,0.0120000,0.9950000,8.10000,0.30000,-28.40000
15.258453,-0.1220000,-0.1220000,0.0000000,0.0020000,0.0120000,0.9950000,8.30000,0.30000,-28.50000
15.307480,0.0610000,-0.0610000,0.0000000,0.0020000,0.0100000,0.9950000,8.40000,0.30000,-28.40000
15.357398,-0.0610000,-0.0610000,0.0000000,0.0020000,0.0120000,0.9940000,8.30000,0.30000,-28.40000
15.407827,-0.0610000,-0.0610000,0.0610000,0.0020000,0.0120000,0.9950000,8.40000,0.20000,-28.40000
15.457313,-0.0000000,-0.0610000,0.0610000,0.0020000,0.0110000,0.9950000,8.30000,0.20000,-28.30000
15.508800,-0.0610000,-0.0610000,0.0000000,0.0010000,0.0130000,0.9940000,8.20000,0.20000,-28.40000
15.556841,-0.0000000,-0.0000000,0.0000000,0.0020000,0.0110000,0.9940000,8.20000,0.20000,-28.30000
15.610084,-0.0000000,-0.0000000,0.0000000,0.0020000,0.0100000,0.9950000,8.20000,0.20000,-28.30000
15.673634,-0.0000000,-0.0000000,0.0000000,0.0030000,0.0110000,0.9950000,8.20000,0.30000,-28.40000
15.706208,-0.0000000,-0.0000000,0.0000000,0.0030000,0.0120000,0.9960000,8.20000,0.10000,-28.30000
15.756252,-0.0000000,-0.0000000,0.0000000,0.0020000,0.0100000,0.9950000,8.30000,0.20000,-28.40000
15.806383,-0.0000000,-0.0000000,0.0000000,0.0020000,0.0100000,0.9960000,8.10000,0.20000,-28.40000
15.856097,-0.0000000,-0.0000000,0.0000000,0.0010000,0.0110000,0.9950000,8.20000,0.20000,-28.40000
15.905790,-0.0000000,-0.0000000,0.0000000,0.0020000,0.0110000,0.9950000,8.00000,0.20000,-28.30000
15.955772,-0.0000000,-0.0000000,0.0000000,0.0020000,0.0120000,0.9960000,8.10000,0.20000,-28.50000
16.005577,-0.0000000,-0.0000000,0.0000000,0.0020000,0.0120000,0.9940000,8.20000,0.10000,-28.30000
16.059941,-0.0000000,-0.0000000,0.0000000,0.0020000,0.0110000,0.9950000,8.20000,0.20000,-28.40000
16.107978,-0.0000000,-0.0000000,0.0000000,0.0020000,0.0120000,0.9950000,8.20000,0.30000,-28.40000
16.161070,-0.0000000,-0.0000000,0.0000000,0.0010000,0.0120000,0.9950000,8.20000,0.30000,-28.40000
16.205052,-0.0000000,-0.0000000,0.0000000,0.0020000,0.0100000,0.9950000,8.30000,0.20000,-28.40000
16.262871,-0.0000000,-0.0000000,0.0000000,0.0010000,0.0110000,0.9950000,8.20000,0.20000,-28.40000
16.305100,-0.0000000,-0.0000000,0.0000000,0.0010000,0.0120000,0.9950000,8.30000,0.30000,-28.30000
16.363723,-0.0000000,-0.0000000,0.0000000,0.0020000,0.0110000,0.9950000,8.30000,0.30000,-28.40000
16.407856,-0.0000000,-0.0000000,0.0000000,0.0020000,0.0130000,0.9960000,8.40000,0.30000,-28.50000
16.455626,-0.0000000,-0.0000000,0.0000000,0.0020000,0.0100000,0.9940000,8.30000,0.20000,-28.40000
16.507199,0.1830000,0.1830000,0.0000000,0.0040000,0.0090000,0.9940000,8.30000,0.30000,-28.40000
16.554594,-0.0000000,-0.0000000,0.0000000,0.0020000,0.0080000,0.9960000,8.10000,0.10000,-28.30000
16.611619,0.1220000,-0.0000000,0.0000000,0.0040000,0.0100000,0.9940000,8.20000,0.10000,-28.40000
16.672855,-0.0000000,-0.0000000,0.0000000,0.0010000,0.0120000,0.9970000,8.10000,0.20000,-28.50000
16.709358,-0.0610000,-0.0610000,0.0610000,0.0000000,0.0100000,0.9950000,8.10000,0.40000,-28.50000
16.761404,-0.1220000,-0.1220000,0.0000000,0.0010000,0.0130000,0.9910000,8.20000,0.40000,-28.40000
16.803433,-0.0610000,-0.0610000,0.0000000,0.0050000,0.0140000,0.9910000,8.20000,0.40000,-28.30000
16.853160,-0.0000000,0.0610000,0.0000000,0.0010000,0.0050000,0.9970000,8.30000,0.50000,-28.40000
16.903181,-0.0000000,-0.0000000,0.0000000,0.0030000,0.0110000,0.9960000,8.40000,0.40000,-28.60000
16.953406,-0.0000000,-0.0000000,0.0000000,0.0010000,0.0080000,0.9950000,8.30000,0.40000,-28.50000
17.003016,0.0610000,0.0610000,0.0000000,0.0020000,0.0100000,0.9950000,8.40000,0.30000,-28.40000
17.052764,-0.0000000,-0.0000000,0.0610000,0.0030000,0.0120000,0.9950000,8.30000,0.20000,-28.40000
17.102647,-0.0000000,-0.0000000,0.0000000,0.0020000,0.0100000,0.9950000,8.20000,0.30000,-28.50000
17.152322,-0.0000000,-0.0000000,0.0000000,0.0020000,0.0120000,0.9950000,8.10000,0.20000,-28.40000
17.203694,-0.0000000,0.0610000,0.0000000,0.0010000,0.0090000,0.9970000,8.20000,0.10000,-28.30000
17.252892,-0.0000000,-0.0000000,0.0000000,0.0020000,0.0090000,0.9950000,8.10000,0.20000,-28.30000
17.302105,-0.0000000,-0.0000000,0.0000000,0.0030000,0.0100000,0.9950000,8.20000,0.20000,-28.30000
17.351883,-0.0000000,-0.0000000,0.0000000,0.0030000,0.0090000,0.9940000,8.30000,0.30000,-28.20000
17.402354,-0.0000000,-0.0000000,0.0000000,0.0030000,0.0110000,0.9940000,8.30000,0.30000,-28.30000
17.451654,-0.0000000,-0.0000000,0.0000000,0.0020000,0.0110000,0.9960000,8.20000,0.20000,-28.40000
17.501402,-0.0000000,-0.0000000,0.0000000,0.0030000,0.0090000,0.9950000,8.20000,0.10000,-28.40000
17.551587,-0.0000000,-0.0610000,0.0000000,0.0020000,0.0110000,0.9950000,8.00000,0.20000,-28.30000
17.601504,0.0610000,-0.0000000,0.0000000,0.0020000,0.0120000,0.9960000,8.20000,0.20000,-28.40000
17.657080,-0.0000000,-0.0000000,0.0000000,0.0020000,0.0110000,0.9950000,8.20000,0.40000,-28.30000
17.701080,-0.0000000,-0.0000000,0.0000000,0.0020000,0.0090000,0.9960000,8.10000,0.40000,-28.40000
17.750714,-0.0000000,-0.0000000,0.0000000,0.0010000,0.0110000,0.9940000,8.30000,0.30000,-28.20000
17.803777,-0.0000000,-0.0000000,0.0000000,0.0020000,0.0100000,0.9940000,8.20000,0.40000,-28.40000
17.850648,-0.0000000,-0.0000000,0.0000000,0.0020000,0.0100000,0.9950000,8.10000,0.10000,-28.30000
17.901075,-0.0000000,-0.0000000,0.0000000,0.0010000,0.0100000,0.9940000,8.00000,0.30000,-28.30000
17.950291,-0.0000000,-0.0000000,0.0000000,0.0020000,0.0090000,0.9950000,8.20000,0.30000,-28.20000
18.002997,-0.0000000,-0.0000000,0.0000000,0.0020000,0.0110000,0.9950000,8.30000,0.30000,-28.30000
18.051063,-0.0000000,-0.0000000,0.0000000,0.0010000,0.0100000,0.9950000,8.20000,0.20000,-28.30000
18.104613,-0.0000000,-0.0000000,0.0000000,0.0000000,0.0090000,0.9950000,8.10000,0.20000,-28.30000
18.150059,-0.0000000,-0.0000000,0.0000000,0.0020000,0.0100000,0.9940000,8.00000,0.30000,-28.30000
18.199716,-0.0000000,-0.0000000,0.0000000,0.0020000,0.0120000,0.9940000,8.10000,0.40000,-28.30000
18.252601,-0.0000000,-0.0000000,0.0000000,0.0020000,0.0090000,0.9940000,8.10000,0.40000,-28.40000
18.299540,-0.0000000,-0.0000000,0.0000000,0.0020000,0.0130000,0.9930000,8.10000,0.40000,-28.40000
18.349106,-0.0000000,-0.0000000,0.0000000,-0.0000000,0.0120000,0.9950000,8.20000,0.40000,-28.40000
18.401343,-0.0000000,-0.0000000,0.0000000,0.0010000,0.0110000,0.9960000,8.10000,0.50000,-28.50000
18.452106,-0.0000000,-0.0000000,0.0000000,0.0030000,0.0120000,0.9950000,8.00000,0.40000,-28.50000
18.499079,-0.0000000,-0.0000000,0.0000000,0.0020000,0.0100000,0.9950000,7.90000,0.40000,-28.40000
18.548971,-0.0000000,-0.0000000,0.0000000,0.0020000,0.0100000,0.9960000,8.10000,0.40000,-28.40000
18.598962,-0.0000000,-0.0000000,0.0000000,0.0030000,0.0100000,0.9950000,8.10000,0.30000,-28.40000
18.649663,-0.0000000,-0.0000000,0.0000000,0.0030000,0.0100000,0.9950000,8.10000,0.30000,-28.40000
18.700049,-0.0000000,-0.0000000,0.0000000,0.0020000,0.0110000,0.9950000,8.20000,0.20000,-28.30000
18.748627,-0.0000000,-0.0000000,0.0000000,0.0030000,0.0100000,0.9940000,8.10000,0.20000,-28.40000
18.803865,-0.0000000,-0.0000000,0.0000000,0.0020000,0.0110000,0.9940000,8.10000,0.20000,-28.40000
18.848256,-0.0000000,-0.0000000,0.0000000,0.0020000,0.0110000,0.9960000,8.20000,0.10000,-28.50000
18.898131,-0.0000000,-0.0000000,0.0000000,0.0030000,0.0110000,0.9950000,8.20000,0.30000,-28.40000
18.948270,-0.0000000,-0.0000000,0.0000000,0.0020000,0.0110000,0.9950000,8.20000,0.30000,-28.30000
18.997424,-0.0000000,-0.0000000,0.0000000,0.0020000,0.0110000,0.9960000,8.20000,0.40000,-28.40000
19.047464,-0.0000000,-0.0000000,0.0000000,0.0030000,0.0110000,0.9960000,8.10000,0.30000,-28.40000
19.097965,-0.0000000,-0.0000000,0.0000000,0.0020000,0.0100000,0.9960000,8.10000,0.30000,-28.30000
19.147650,-0.0000000,-0.0000000,0.0000000,0.0020000,0.0100000,0.9950000,8.10000,0.40000,-28.30000
19.199874,-0.0000000,-0.0000000,0.0000000,0.0010000,0.0100000,0.9950000,8.10000,0.30000,-28.30000
19.247627,-0.0000000,-0.0000000,0.0000000,0.0010000,0.0100000,0.9950000,7.90000,0.30000,-28.50000
19.298056,-0.0000000,-0.0000000,0.0000000,0.0030000,0.0110000,0.9940000,8.10000,0.30000,-28.30000
19.348195,-0.0000000,-0.0000000,0.0000000,0.0020000,0.0100000,0.9960000,8.00000,0.30000,-28.30000
19.398021,-0.0000000,-0.0000000,0.0000000,0.0020000,0.0100000,0.9950000,7.90000,0.30000,-28.30000
19.448032,-0.0000000,-0.0000000,0.0000000,0.0020000,0.0110000,0.9950000,8.00000,0.30000,-28.30000
19.496718,-0.0000000,-0.0000000,0.0000000,0.0020000,0.0110000,0.9950000,8.20000,0.20000,-28.20000
19.546469,-0.0000000,-0.0000000,0.0000000,0.0020000,0.0090000,0.9950000,8.00000,0.50000,-28.00000
19.596324,-0.0000000,-0.0000000,0.0000000,0.0020000,0.0100000,0.9950000,8.20000,0.40000,-28.10000
19.646286,-0.0000000,-0.0000000,0.0000000,0.0020000,0.0110000,0.9960000,8.20000,0.30000,-28.30000
19.720261,-0.0000000,-0.0000000,0.0000000,0.0010000,0.0100000,0.9950000,8.10000,0.40000,-28.20000
19.745905,-0.0000000,-0.0000000,0.0000000,0.0020000,0.0100000,0.9950000,8.20000,0.20000,-28.30000
19.795791,-0.0000000,-0.0000000,0.0000000,0.0030000,0.0110000,0.9950000,8.10000,0.20000,-28.40000
19.846815,-0.0000000,-0.0000000,0.0000000,0.0020000,0.0110000,0.9950000,8.00000,0.30000,-28.30000
19.895893,-0.0000000,-0.0000000,0.0000000,0.0030000,0.0110000,0.9950000,8.10000,0.10000,-28.30000
19.949138,-0.0000000,-0.0000000,0.0000000,0.0020000,0.0110000,0.9950000,8.10000,0.30000,-28.40000
19.995383,-0.0000000,-0.0000000,0.0000000,0.0010000,0.0110000,0.9950000,8.10000,0.30000,-28.30000
20.046113,-0.0000000,-0.0000000,0.0000000,0.0020000,0.0110000,0.9960000,8.10000,0.40000,-28.30000
20.095849,-0.0000000,-0.0000000,0.0000000,0.0010000,0.0120000,0.9960000,8.10000,0.30000,-28.40000
20.148035,-0.0000000,-0.0000000,0.0000000,0.0030000,0.0100000,0.9960000,8.00000,0.30000,-28.30000
20.194841,-0.0000000,-0.0000000,0.0000000,0.0020000,0.0100000,0.9950000,8.10000,0.30000,-28.40000
20.244984,-0.0000000,-0.0000000,0.0000000,0.0010000,0.0110000,0.9950000,8.00000,0.40000,-28.40000
20.295062,-0.0000000,-0.0000000,0.0000000,0.0020000,0.0100000,0.9950000,8.10000,0.40000,-28.30000
20.344553,-0.0000000,-0.0000000,0.0000000,0.0020000,0.0100000,0.9960000,8.00000,0.30000,-28.20000
20.397239,-0.0000000,-0.0000000,0.0000000,0.0030000,0.0100000,0.9950000,8.10000,0.30000,-28.40000
20.444504,-0.0000000,-0.0000000,0.0000000,0.0030000,0.0110000,0.9960000,8.00000,0.30000,-28.30000
20.502306,-0.0000000,-0.0000000,0.0000000,0.0020000,0.0100000,0.9940000,8.00000,0.30000,-28.40000
20.543814,-0.0000000,-0.0000000,0.0000000,0.0020000,0.0100000,0.9950000,8.00000,0.30000,-28.30000
20.594488,-0.0000000,-0.0000000,0.0000000,0.0010000,0.0100000,0.9950000,8.00000,0.30000,-28.30000
20.643499,-0.0000000,-0.0000000,0.0000000,0.0020000,0.0100000,0.9950000,8.10000,0.30000,-28.30000
20.693695,-0.0000000,-0.0000000,0.0000000,0.0020000,0.0110000,0.9970000,8.10000,0.30000,-28.30000
20.743477,-0.0000000,-0.0000000,0.0000000,0.0020000,0.0100000,0.9950000,8.00000,0.20000,-28.30000
20.797775,-0.0000000,-0.0000000,0.0000000,0.0020000,0.0110000,0.9960000,8.00000,0.20000,-28.30000
20.843076,-0.0000000,-0.0000000,0.0000000,0.0020000,0.0110000,0.9950000,7.90000,0.30000,-28.40000
20.893258,-0.0000000,-0.0000000,0.0000000,0.0020000,0.0100000,0.9950000,7.90000,0.20000,-28.30000
20.943011,-0.0000000,-0.0000000,0.0000000,0.0010000,0.0110000,0.9950000,8.00000,0.40000,-28.30000
20.993203,-0.0000000,-0.0000000,0.0000000,0.0010000,0.0100000,0.9950000,8.10000,0.20000,-28.40000
21.046511,-0.0000000,-0.0000000,0.0000000,0.0020000,0.0110000,0.9950000,8.20000,0.20000,-28.30000
21.093545,-0.0000000,-0.0000000,0.0000000,0.0010000,0.0110000,0.9950000,8.20000,0.30000,-28.40000
21.142430,-0.0000000,-0.0000000,0.0000000,0.0020000,0.0090000,0.9950000,8.10000,0.20000,-28.30000
21.194520,-0.0000000,-0.0000000,0.0000000,0.0020000,0.0110000,0.9950000,8.00000,0.30000,-28.30000
21.242265,-0.0000000,-0.0000000,0.0000000,0.0010000,0.0100000,0.9950000,8.20000,0.20000,-28.30000
21.293514,-0.0000000,-0.0000000,0.0000000,0.0020000,0.0110000,0.9950000,8.10000,0.20000,-28.40000
21.343132,-0.0000000,-0.0000000,0.0000000,0.0020000,0.0090000,0.9950000,8.20000,0.10000,-28.30000
21.393166,-0.0000000,-0.0000000,0.0000000,0.0020000,0.0110000,0.9960000,8.10000,0.20000,-28.30000
21.442017,-0.0000000,-0.0000000,0.0000000,0.0020000,0.0110000,0.9950000,8.10000,0.30000,-28.30000
21.491699,-0.0000000,-0.0000000,0.0000000,0.0020000,0.0120000,0.9950000,8.20000,0.40000,-28.30000
21.545264,-0.0000000,-0.0000000,0.0000000,0.0010000,0.0110000,0.9960000,8.30000,0.50000,-28.20000
21.591385,-0.0000000,-0.0000000,0.0000000,0.0030000,0.0100000,0.9950000,8.20000,0.40000,-28.40000
21.641057,-0.0000000,-0.0000000,0.0000000,0.0030000,0.0110000,0.9950000,8.10000,0.40000,-28.30000
21.691435,-0.0000000,-0.0000000,0.0000000,0.0020000,0.0110000,0.9960000,8.20000,0.40000,-28.40000
21.741782,-0.0000000,-0.0000000,0.0000000,0.0030000,0.0110000,0.9950000,8.00000,0.50000,-28.30000
21.791644,-0.0000000,-0.0000000,0.0000000,0.0010000,0.0100000,0.9950000,8.20000,0.30000,-28.30000
21.841367,-0.0000000,-0.0000000,0.0000000,0.0020000,0.0110000,0.9950000,8.10000,0.20000,-28.30000
21.890751,-0.0000000,-0.0000000,0.0000000,0.0020000,0.0100000,0.9950000,8.10000,0.20000,-28.30000
21.940468,-0.0000000,-0.0000000,0.0000000,0.0020000,0.0100000,0.9960000,8.30000,0.10000,-28.10000
21.991477,-0.0000000,-0.0000000,0.0000000,0.0020000,0.0100000,0.9950000,8.20000,0.20000,-28.10000
22.040388,-0.0000000,-0.0000000,0.0000000,0.0020000,0.0100000,0.9960000,8.00000,0.40000,-28.20000
22.090222,-0.0000000,-0.0000000,0.0000000,0.0030000,0.0100000,0.9950000,8.20000,0.40000,-28.40000
22.140086,-0.0000000,-0.0000000,0.0000000,0.0020000,0.0110000,0.9940000,8.10000,0.20000,-28.40000
22.189793,-0.0000000,-0.0000000,0.0000000,0.0020000,0.0100000,0.9950000,8.10000,0.40000,-28.40000
22.243248,-0.0000000,-0.0000000,0.0000000,0.0010000,0.0090000,0.9950000,8.10000,0.30000,-28.40000
22.289900,-0.0000000,-0.0000000,0.0000000,-0.0000000,0.0210000,1.0100000,8.00000,0.50000,-28.30000
22.339312,-0.0000000,-0.0000000,0.0000000,-0.0000000,0.0140000,1.0000000,8.10000,0.50000,-28.20000
22.389179,-0.0000000,-0.0000000,0.0000000,0.0020000,0.0100000,0.9940000,8.00000,0.30000,-28.30000
22.439247,-0.0000000,-0.0000000,0.0000000,0.0010000,0.0110000,0.9960000,8.00000,0.30000,-28.30000
22.489283,-0.0000000,-0.0000000,0.0000000,0.0010000,0.0110000,0.9950000,7.90000,0.30000,-28.30000
22.539230,-0.0000000,-0.0000000,0.0000000,0.0020000,0.0110000,0.9950000,7.90000,0.40000,-28.40000
22.618120,-0.0000000,-0.0000000,0.0000000,0.0020000,0.0110000,0.9960000,8.10000,0.30000,-28.40000
22.638955,-0.0000000,-0.0000000,0.0000000,0.0030000,0.0110000,0.9950000,8.10000,0.30000,-28.40000
22.688682,-0.0000000,-0.0000000,0.0000000,0.0010000,0.0100000,0.9950000,8.10000,0.40000,-28.40000
22.738704,-0.0000000,-0.0000000,0.0000000,0.0010000,0.0100000,0.9950000,8.10000,0.40000,-28.40000
22.788775,-0.0000000,-0.0000000,0.0000000,0.0030000,0.0110000,0.9960000,8.10000,0.30000,-28.30000
22.838605,-0.0000000,-0.0000000,0.0000000,0.0020000,0.0110000,0.9950000,8.30000,0.30000,-28.30000
22.888217,-0.0000000,-0.0000000,0.0000000,0.0020000,0.0100000,0.9960000,8.00000,0.40000,-28.30000
22.938532,-0.0000000,-0.0000000,0.0000000,0.0020000,0.0100000,0.9950000,7.90000,0.20000,-28.30000
22.987765,-0.0000000,-0.0000000,0.0000000,0.0010000,0.0110000,0.9950000,8.00000,0.40000,-28.30000
23.037998,-0.0000000,-0.0000000,0.0000000,0.0030000,0.0100000,0.9940000,8.10000,0.20000,-28.30000
23.087737,-0.0000000,-0.0000000,0.0000000,0.0020000,0.0110000,0.9950000,7.90000,0.20000,-28.30000
23.137864,-0.0000000,-0.0000000,0.0000000,0.0010000,0.0100000,0.9950000,8.00000,0.20000,-28.30000
23.187406,-0.0000000,-0.0000000,0.0000000,0.0010000,0.0100000,0.9950000,8.00000,0.10000,-28.30000
23.239089,-0.0000000,-0.0000000,0.0000000,0.0010000,0.0100000,0.9960000,8.10000,0.20000,-28.40000
23.287040,-0.0000000,-0.0000000,0.0000000,0.0020000,0.0130000,0.9970000,8.10000,0.20000,-28.30000
23.338282,-0.0000000,-0.0000000,0.0000000,0.0020000,0.0130000,0.9940000,8.10000,0.20000,-28.40000
23.386965,-0.0000000,-0.0000000,0.0000000,0.0020000,0.0130000,0.9900000,8.10000,0.30000,-28.40000
23.437822,-0.0000000,-0.0000000,0.0000000,0.0010000,0.0120000,0.9860000,8.00000,0.20000,-28.30000
23.486678,-0.0000000,-0.0000000,0.0000000,0.0030000,0.0100000,0.9950000,8.20000,0.50000,-28.20000
23.538061,-0.0000000,-0.0000000,0.0000000,0.0010000,0.0090000,0.9970000,8.10000,0.30000,-28.30000
23.586675,-0.0000000,-0.0000000,0.0000000,0.0020000,0.0120000,0.9960000,8.20000,0.40000,-28.20000
23.637064,-0.0000000,-0.0000000,0.0000000,0.0030000,0.0110000,0.9940000,8.00000,0.30000,-28.40000
23.686354,-0.0000000,-0.0000000,0.0000000,0.0030000,0.0100000,0.9960000,7.90000,0.30000,-28.40000
23.736855,-0.0000000,-0.0000000,0.0000000,0.0020000,0.0120000,0.9950000,8.00000,0.30000,-28.40000
23.785857,-0.0000000,-0.0000000,0.0000000,0.0010000,0.0100000,0.9960000,8.00000,0.30000,-28.30000
23.839011,-0.0000000,-0.0000000,0.0000000,0.0020000,0.0100000,0.9950000,8.10000,0.40000,-28.30000
23.885743,-0.0000000,-0.0000000,0.0000000,0.0020000,0.0100000,0.9960000,8.10000,0.10000,-28.20000
23.937643,-0.0000000,-0.0000000,0.0000000,0.0020000,0.0100000,0.9940000,8.10000,0.20000,-28.40000
23.986004,-0.0000000,-0.0000000,0.0000000,0.0010000,0.0110000,0.9940000,8.20000,0.20000,-28.30000
24.035726,-0.0000000,-0.0000000,0.0000000,0.0020000,0.0100000,0.9960000,8.20000,0.30000,-28.30000
24.085427,-0.0000000,-0.0000000,0.0000000,0.0020000,0.0100000,0.9940000,8.20000,0.20000,-28.30000
24.135092,-0.0000000,-0.0000000,0.0000000,0.0010000,0.0100000,0.9960000,8.20000,0.40000,-28.40000
24.185065,-0.0000000,-0.0000000,0.0000000,0.0020000,0.0110000,0.9950000,8.20000,0.40000,-28.30000
24.234719,-0.0000000,-0.0000000,0.0000000,0.0020000,0.0120000,0.9950000,8.30000,0.40000,-28.40000
24.285142,0.5490000,0.1830000,0.0000000,0.0050000,0.0100000,1.0060000,8.20000,0.40000,-28.30000
24.337210,-0.0000000,-0.0000000,0.0000000,0.0100000,-0.0010000,0.9880000,8.40000,0.50000,-28.30000
24.386787,0.0610000,0.0610000,0.0000000,0.0030000,0.0110000,0.9970000,8.10000,0.30000,-28.30000
24.434417,-0.0000000,-0.0000000,0.0000000,0.0050000,0.0170000,0.9970000,8.10000,0.30000,-28.30000
24.484591,-0.0000000,0.0610000,0.0000000,0.0030000,0.0090000,0.9950000,8.20000,0.30000,-28.30000
24.534792,-0.0000000,-0.0000000,0.0000000,0.0030000,0.0130000,0.9950000,8.10000,0.10000,-28.40000
24.585236,-0.0000000,-0.0000000,0.0000000,0.0020000,0.0070000,0.9950000,8.10000,0.20000,-28.40000
24.633786,-0.0000000,-0.0000000,0.0000000,0.0010000,0.0090000,0.9960000,8.10000,0.20000,-28.30000
24.684078,-0.0000000,-0.0000000,0.0000000,0.0020000,0.0130000,0.9950000,8.00000,0.30000,-28.40000
24.733652,-0.0000000,-0.0000000,0.0000000,0.0010000,0.0100000,0.9940000,8.10000,0.30000,-28.40000
24.783805,-0.0000000,-0.0000000,0.0000000,0.0020000,0.0110000,0.9960000,8.10000,0.30000,-28.40000
24.835031,-0.0000000,-0.0000000,0.0610000,0.0020000,0.0110000,0.9940000,8.10000,0.20000,-28.30000
24.884220,-0.0000000,-0.0000000,0.0000000,0.0010000,0.0110000,0.9950000,8.00000,0.30000,-28.40000
24.933698,-0.0000000,-0.0000000,0.0000000,0.0020000,0.0100000,0.9960000,8.10000,0.30000,-28.20000
24.983317,-0.0610000,-0.0000000,0.0000000,0.0020000,0.0100000,0.9950000,8.10000,0.30000,-28.40000
25.033535,-0.0000000,-0.0000000,0.0610000,0.0010000,0.0110000,0.9950000,7.90000,0.20000,-28.30000
25.085489,-0.0000000,-0.0000000,0.0610000,0.0010000,0.0100000,0.9950000,8.00000,0.20000,-28.50000
25.132386,-0.0000000,-0.0000000,0.0000000,-0.0000000,0.0110000,0.9940000,8.00000,0.30000,-28.30000
25.185170,-0.0610000,-0.0610000,0.0000000,0.0010000,0.0100000,0.9960000,8.00000,0.40000,-28.40000
25.233246,-0.0000000,-0.0000000,0.0000000,0.0020000,0.0110000,0.9950000,8.10000,0.20000,-28.40000
25.283551,-0.0000000,-0.0000000,0.0000000,0.0020000,0.0110000,0.9950000,8.30000,0.30000,-28.50000
25.332244,-0.0000000,-0.0000000,0.0000000,0.0010000,0.0110000,0.9950000,8.00000,0.20000,-28.40000
25.388616,-0.0000000,-0.0000000,0.0000000,0.0020000,0.0100000,0.9940000,8.00000,0.20000,-28.40000
25.431964,-0.0000000,-0.0000000,0.0000000,0.0020000,0.0110000,0.9960000,8.00000,0.20000,-28.30000
25.481957,-0.0000000,-0.0000000,0.0000000,0.0010000,0.0100000,0.9950000,8.00000,0.30000,-28.40000
25.533756,-0.0000000,-0.0000000,0.0000000,0.0020000,0.0090000,0.9950000,8.10000,0.40000,-28.20000
25.581794,-0.0000000,-0.0000000,0.0000000,0.0010000,0.0100000,0.9960000,8.00000,0.20000,-28.20000
25.631435,-0.0000000,-0.0000000,0.0000000,0.0020000,0.0110000,0.9950000,8.10000,0.50000,-28.30000
25.683215,-0.0000000,-0.0000000,0.0000000,0.0020000,0.0110000,0.9950000,8.10000,0.40000,-28.30000
25.731648,-0.1220000,-0.1220000,0.0000000,0.0020000,0.0110000,0.9950000,7.90000,0.40000,-28.30000
25.784423,-0.0000000,0.0610000,0.0000000,0.0020000,0.0110000,0.9950000,8.10000,0.50000,-28.30000
25.837232,-0.0000000,-0.0000000,0.0000000,0.0020000,0.0110000,0.9950000,8.10000,0.30000,-28.30000
25.889253,-0.0000000,-0.0000000,0.0610000,0.0010000,0.0110000,0.9950000,8.10000,0.30000,-28.40000
25.930926,-0.0000000,0.0610000,0.0000000,0.0010000,0.0120000,0.9950000,8.20000,0.20000,-28.20000
25.980845,-0.0000000,-0.0000000,0.0000000,0.0020000,0.0100000,0.9950000,8.10000,0.20000,-28.30000
26.030736,-0.0000000,-0.0000000,0.0000000,0.0030000,0.0110000,0.9960000,8.20000,0.20000,-28.50000
26.080519,-0.0000000,-0.0610000,0.0000000,0.0020000,0.0110000,0.9950000,8.20000,0.20000,-28.40000
26.130724,-0.0000000,-0.0000000,0.0000000,0.0010000,0.0100000,0.9950000,8.10000,0.30000,-28.40000
26.180161,0.0610000,-0.0000000,0.0000000,0.0010000,0.0120000,0.9950000,8.00000,0.20000,-28.40000
26.230251,0.0610000,-0.0000000,0.0000000,0.0020000,0.0100000,0.9940000,8.00000,0.30000,-28.30000
26.279680,-0.0000000,-0.0000000,0.0000000,0.0020000,0.0110000,0.9950000,8.00000,0.20000,-28.30000
26.331981,-0.0000000,-0.0000000,0.0000000,0.0020000,0.0100000,0.9950000,7.90000,0.20000,-28.40000
26.384591,0.0610000,-0.0000000,0.0000000,0.0020000,0.0100000,0.9940000,8.00000,0.20000,-28.30000
26.437030,-0.0000000,-0.0000000,0.0000000,0.0010000,0.0110000,0.9960000,8.10000,0.40000,-28.40000
26.479669,-0.0000000,-0.0000000,0.0610000,0.0020000,0.0110000,0.9950000,8.10000,0.30000,-28.30000
26.531717,-0.0000000,-0.0000000,0.0000000,0.0010000,0.0100000,0.9950000,8.10000,0.20000,-28.30000
26.583261,-0.0000000,-0.0000000,0.0000000,0.0020000,0.0110000,0.9950000,8.20000,0.20000,-28.20000
26.630987,-0.0000000,-0.0000000,0.0000000,0.0020000,0.0110000,0.9950000,8.10000,0.30000,-28.30000
26.689267,-0.0000000,-0.0000000,0.0000000,0.0010000,0.0100000,0.9950000,8.20000,0.30000,-28.40000
26.733693,-0.0000000,-0.0000000,0.0610000,0.0030000,0.0100000,0.9950000,8.10000,0.30000,-28.30000
26.780513,-0.0000000,-0.0000000,0.0000000,0.0020000,0.0110000,0.9960000,8.10000,0.30000,-28.40000
26.834213,-0.0000000,-0.0000000,0.0000000,0.0020000,0.0100000,0.9950000,8.10000,0.20000,-28.30000
26.879924,-0.0000000,-0.0000000,0.0000000,0.0030000,0.0100000,0.9960000,8.20000,0.30000,-28.20000
26.928989,-0.0000000,-0.0000000,0.0000000,0.0020000,0.0110000,0.9950000,8.10000,0.30000,-28.30000
26.978173,-0.0000000,-0.0000000,0.0000000,0.0020000,0.0110000,0.9950000,8.00000,0.40000,-28.30000
27.029232,-0.0000000,-0.0000000,0.0000000,0.0020000,0.0100000,0.9950000,7.90000,0.40000,-28.40000
27.078982,-0.0000000,-0.0000000,0.0000000,0.0020000,0.0100000,0.9940000,7.90000,0.20000,-28.30000
27.130126,-0.0000000,-0.0000000,0.0000000,0.0020000,0.0100000,0.9960000,7.90000,0.20000,-28.40000
27.178059,-0.0000000,-0.0000000,0.0000000,0.0010000,0.0110000,0.9950000,8.00000,0.20000,-28.20000
27.229134,-0.0000000,-0.0000000,0.0000000,0.0020000,0.0090000,0.9950000,8.00000,0.30000,-28.30000
27.277547,-0.0000000,-0.0000000,0.0000000,0.0010000,0.0110000,0.9950000,8.10000,0.30000,-28.30000
27.327597,-0.0000000,-0.0000000,0.0000000,0.0020000,0.0110000,0.9950000,8.10000,0.30000,-28.30000
27.377852,-0.0000000,-0.0000000,0.0000000,0.0010000,0.0100000,0.9950000,8.00000,0.30000,-28.30000
27.429212,-0.0000000,-0.0000000,0.0000000,0.0030000,0.0110000,0.9950000,8.10000,0.30000,-28.30000
27.477904,-0.0000000,-0.0000000,0.0000000,0.0030000,0.0120000,0.9950000,8.30000,0.50000,-28.50000
27.527339,-0.0000000,-0.0000000,0.0000000,0.0020000,0.0100000,0.9960000,8.10000,0.40000,-28.40000
27.577477,-0.0000000,-0.0000000,0.0000000,0.0010000,0.0110000,0.9950000,8.20000,0.30000,-28.10000
27.629229,-0.0000000,-0.0000000,0.0000000,0.0010000,0.0120000,0.9960000,8.10000,0.30000,-28.30000
27.676699,-0.0000000,-0.0000000,0.0000000,0.0020000,0.0100000,0.9950000,8.00000,0.30000,-28.30000
27.730107,-0.0000000,-0.0000000,0.0000000,0.0020000,0.0110000,0.9960000,8.20000,0.30000,-28.30000
27.777330,-0.0000000,-0.0000000,0.0000000,0.0020000,0.0100000,0.9960000,8.10000,0.30000,-28.10000
27.827807,-0.0000000,-0.0000000,0.0000000,0.0010000,0.0110000,0.9950000,8.10000,0.30000,-28.30000
27.884612,-0.0000000,-0.0000000,0.0000000,0.0020000,0.0120000,0.9950000,8.00000,0.30000,-28.30000
27.926105,-0.0000000,-0.0000000,0.0000000,0.0020000,0.0100000,0.9960000,8.40000,0.10000,-27.50000
27.976235,-0.0000000,-0.0000000,0.0000000,0.0010000,0.0100000,0.9940000,8.10000,0.20000,-28.00000
28.025735,-0.0000000,-0.0000000,0.0000000,0.0020000,0.0110000,0.9950000,8.10000,0.40000,-28.30000
28.077485,-0.0000000,-0.0000000,0.0000000,0.0020000,0.0100000,0.9950000,8.10000,0.40000,-28.30000
28.125559,-0.0000000,-0.0000000,0.0000000,0.0020000,0.0110000,0.9950000,8.00000,0.20000,-28.30000
28.175618,-0.0000000,-0.0000000,0.0000000,0.0020000,0.0100000,0.9960000,8.00000,0.20000,-28.30000
28.225341,-0.0000000,-0.0000000,0.0000000,0.0010000,0.0100000,0.9940000,8.10000,0.30000,-28.40000
28.277940,-0.0000000,-0.0000000,0.0000000,0.0020000,0.0100000,0.9950000,8.10000,0.40000,-28.40000
28.325246,-0.0000000,-0.0000000,0.0000000,0.0010000,0.0110000,0.9950000,8.10000,0.40000,-28.40000
28.375194,-0.0000000,-0.0000000,0.0000000,0.0030000,0.0110000,0.9950000,8.00000,0.30000,-28.40000
28.436179,-0.0000000,-0.0000000,0.0000000,0.0010000,0.0100000,0.9960000,8.10000,0.30000,-28.40000
28.474962,-0.0000000,-0.0000000,0.0000000,0.0020000,0.0100000,0.9950000,8.30000,0.50000,-28.00000
28.524779,-0.0000000,-0.0000000,0.0000000,0.0020000,0.0110000,0.9960000,8.10000,0.30000,-28.10000
28.574594,-0.0000000,-0.0000000,0.0000000,0.0010000,0.0100000,0.9960000,8.00000,0.40000,-28.20000
28.624329,-0.0000000,-0.0000000,0.0000000,0.0020000,0.0120000,0.9960000,8.10000,0.30000,-28.20000
28.674602,-0.0000000,-0.0000000,0.0000000,0.0020000,0.0110000,0.9960000,8.10000,0.30000,-28.40000
28.724169,-0.0000000,-0.0000000,0.0000000,0.0010000,0.0110000,0.9950000,8.00000,0.30000,-28.30000
28.774723,-0.0000000,-0.0000000,0.0000000,0.0020000,0.0110000,0.9950000,8.00000,0.20000,-28.40000
28.823932,-0.0000000,-0.0000000,0.0000000,0.0010000,0.0110000,0.9950000,8.00000,0.40000,-28.50000
28.873883,-0.0000000,-0.0000000,0.0000000,0.0020000,0.0100000,0.9960000,8.10000,0.30000,-28.40000
28.923560,-0.0000000,-0.0000000,0.0000000,0.0010000,0.0100000,0.9950000,8.10000,0.30000,-28.30000
28.973619,-0.0000000,-0.0000000,0.0000000,0.0020000,0.0110000,0.9950000,8.10000,0.30000,-28.40000
29.023284,-0.0000000,-0.0000000,0.0000000,0.0020000,0.0100000,0.9950000,8.10000,0.40000,-28.30000
29.078160,-0.0000000,-0.0000000,0.0000000,0.0010000,0.0110000,0.9940000,8.00000,0.40000,-28.30000
29.123044,-0.0000000,-0.0000000,0.0000000,0.0020000,0.0120000,0.9960000,7.90000,0.20000,-28.20000
29.173218,-0.0000000,-0.0000000,0.0000000,0.0010000,0.0100000,0.9950000,7.90000,0.30000,-28.40000
29.223040,-0.0000000,-0.0000000,0.0000000,0.0030000,0.0100000,0.9950000,7.90000,0.30000,-28.30000
29.273528,-0.0000000,-0.0000000,0.0000000,0.0010000,0.0100000,0.9960000,8.00000,0.30000,-28.30000
29.322960,-0.0000000,-0.0000000,0.0000000,0.0020000,0.0100000,0.9960000,8.00000,0.10000,-28.20000
29.372698,-0.0000000,-0.0000000,0.0000000,0.0020000,0.0110000,0.9950000,8.00000,0.20000,-28.30000
29.422649,-0.0000000,-0.0000000,0.0000000,0.0020000,0.0100000,0.9950000,8.10000,0.30000,-28.30000
29.472043,-0.0000000,-0.0000000,0.0000000,0.0010000,0.0110000,0.9950000,8.10000,0.20000,-28.40000
29.522218,-0.0000000,-0.0000000,0.0000000,0.0020000,0.0110000,0.9950000,8.20000,0.30000,-28.40000
29.573702,-0.0000000,-0.0000000,0.0000000,0.0020000,0.0110000,0.9950000,8.00000,0.30000,-28.40000
29.621950,-0.0000000,-0.0000000,0.0000000,0.0020000,0.0100000,0.9950000,8.20000,0.50000,-28.30000
29.675855,-0.0000000,-0.0000000,0.0000000,0.0020000,0.0110000,0.9960000,8.00000,0.30000,-28.30000
29.721719,-0.0000000,-0.0000000,0.0000000,0.0030000,0.0110000,0.9950000,8.00000,0.30000,-28.20000
29.773366,-0.0000000,-0.0000000,0.0000000,0.0020000,0.0100000,0.9950000,8.10000,0.30000,-28.30000
29.821431,-0.0000000,-0.0000000,0.0000000,0.0020000,0.0100000,0.9950000,7.80000,0.30000,-28.30000
29.871538,-0.0000000,-0.0000000,0.0000000,0.0010000,0.0110000,0.9960000,8.00000,0.30000,-28.30000
29.921617,-0.0000000,-0.0000000,0.0000000,0.0010000,0.0110000,0.9960000,8.10000,0.40000,-28.30000
29.971074,-0.0000000,-0.0000000,0.0000000,0.0030000,0.0100000,0.9950000,8.10000,0.30000,-28.30000
30.021139,-0.0000000,-0.0000000,0.0000000,0.0020000,0.0120000,0.9950000,8.10000,0.20000,-28.40000
30.070987,-0.0000000,-0.0000000,0.0000000,0.0030000,0.0120000,0.9950000,8.10000,0.30000,-28.40000
30.130482,-0.0000000,-0.0000000,0.0000000,0.0010000,0.0090000,0.9950000,8.10000,0.30000,-28.40000
30.170594,-0.0000000,-0.0000000,0.0000000,0.0010000,0.0110000,0.9950000,8.10000,0.30000,-28.30000
30.223134,-0.0000000,-0.0000000,0.0000000,0.0020000,0.0110000,0.9950000,8.00000,0.20000,-28.30000
30.270574,-0.0000000,-0.0000000,0.0000000,0.0010000,0.0110000,0.9950000,8.20000,0.20000,-28.30000
30.332197,-0.0000000,-0.0000000,0.0000000,0.0020000,0.0100000,0.9950000,8.00000,0.30000,-28.30000
30.383518,-0.0000000,-0.0000000,0.0000000,0.0020000,0.0110000,0.9960000,8.10000,0.50000,-28.30000
30.420198,-0.0000000,-0.0000000,0.0000000,0.0020000,0.0100000,0.9950000,8.10000,0.40000,-28.30000
30.470814,-0.0000000,-0.0000000,0.0000000,0.0020000,0.0110000,0.9950000,8.10000,0.20000,-28.30000
30.520316,5.5540000,0.6100000,0.0000000,0.0200000,-0.0420000,0.9720000,8.10000,0.30000,-28.40000
30.571028,2.6860000,0.6710000,0.0000000,-0.0020000,0.0170000,0.9980000,8.10000,0.10000,-28.20000
30.630836,1.0380000,0.2440000,0.0000000,0.0010000,0.0150000,0.9960000,8.10000,0.20000,-28.40000
30.673999,0.9160000,-0.3050000,0.0000000,-0.0000000,0.0210000,0.9910000,8.00000,0.10000,-28.30000
30.721750,-2.0750000,-0.2440000,0.0000000,0.0030000,0.0120000,0.9980000,8.10000,0.10000,-28.30000
30.770655,0.3050000,0.2440000,0.0000000,-0.0010000,0.0140000,0.9950000,8.10000,0.20000,-28.40000
30.819722,3.9670000,0.4880000,-0.0610000,0.0010000,0.0140000,1.0020000,8.10000,0.30000,-28.30000
30.874715,0.1830000,-0.0000000,0.0000000,0.0020000,0.0080000,0.9960000,8.10000,0.30000,-28.40000
30.925507,-0.2440000,-0.1220000,0.0000000,0.0080000,0.0050000,0.9930000,8.10000,0.20000,-28.50000
30.968991,-0.0610000,-0.0610000,0.0000000,0.0010000,0.0090000,0.9950000,8.10000,0.10000,-28.40000
31.019017,-0.0610000,-0.0610000,0.0610000,0.0040000,0.0120000,0.9990000,8.20000,0.20000,-28.40000
31.068639,-0.0000000,-0.0000000,0.0000000,0.0010000,0.0070000,0.9960000,8.10000,0.40000,-28.30000
31.120342,-0.0000000,-0.0000000,0.0000000,0.0010000,0.0100000,0.9970000,8.00000,0.40000,-28.20000
31.169336,-0.0000000,-0.0000000,0.0000000,0.0030000,0.0100000,0.9940000,7.90000,0.30000,-28.30000
31.218522,-0.0000000,-0.0000000,0.0000000,0.0010000,0.0080000,0.9960000,7.90000,0.30000,-28.40000
31.268246,-0.0000000,0.0610000,0.0000000,0.0020000,0.0110000,0.9940000,7.90000,0.10000,-28.30000
31.318256,-0.0000000,-0.0610000,0.0000000,0.0010000,0.0100000,0.9960000,7.80000,0.30000,-28.40000
31.368045,-0.0000000,-0.0000000,0.0610000,0.0020000,0.0110000,0.9950000,8.00000,0.30000,-28.30000
31.419025,-0.0000000,-0.0000000,0.0000000,0.0020000,0.0100000,0.9950000,8.10000,0.30000,-28.30000
31.467815,0.0610000,0.0610000,0.0000000,0.0020000,0.0120000,0.9950000,8.00000,0.30000,-28.40000
31.519650,-0.0000000,-0.0000000,0.0000000,0.0020000,0.0100000,0.9960000,8.10000,0.20000,-28.40000
31.567550,-0.0000000,-0.0000000,0.0000000,0.0010000,0.0110000,0.9950000,8.10000,0.30000,-28.40000
31.621464,-0.0000000,-0.0000000,0.0000000,0.0020000,0.0110000,0.9950000,8.10000,0.30000,-28.40000
31.667403,-0.0000000,-0.0000000,0.0000000,0.0010000,0.0110000,0.9960000,8.10000,0.30000,-28.30000
31.719587,-0.0610000,-0.0000000,0.0000000,0.0020000,0.0090000,0.9940000,8.20000,0.20000,-28.40000
31.772643,-0.0000000,-0.0000000,0.0000000,0.0020000,0.0100000,0.9950000,8.10000,0.40000,-28.30000
31.817006,-0.0610000,-0.0610000,0.0000000,0.0010000,0.0120000,0.9970000,8.10000,0.30000,-28.40000
31.867126,-0.0000000,-0.0000000,0.0000000,0.0020000,0.0120000,0.9960000,8.00000,0.20000,-28.30000
31.917014,-0.0610000,0.0610000,0.0000000,0.0010000,0.0100000,0.9970000,8.00000,0.20000,-28.30000
31.966846,-0.0000000,-0.0000000,0.0000000,0.0010000,0.0100000,0.9960000,8.00000,0.20000,-28.40000
32.017204,-0.0000000,-0.0000000,0.0000000,0.0040000,0.0120000,0.9950000,8.10000,0.40000,-28.40000
32.066659,-0.0000000,-0.0000000,0.0000000,0.0020000,0.0090000,0.9930000,8.10000,0.20000,-28.20000
32.116350,-0.0000000,-0.0000000,0.0000000,0.0010000,0.0110000,0.9960000,8.20000,0.30000,-28.30000
32.165952,-0.0000000,-0.0000000,0.0000000,-0.0000000,0.0110000,0.9950000,8.10000,0.20000,-28.40000
32.216004,-0.0000000,-0.0000000,0.0000000,0.0020000,0.0100000,0.9950000,8.10000,0.40000,-28.30000
32.267745,-0.0000000,-0.0000000,0.0000000,0.0000000,0.0100000,0.9950000,8.00000,0.30000,-28.40000
32.316452,-0.0000000,-0.0000000,0.0000000,0.0020000,0.0110000,0.9940000,8.10000,0.30000,-28.40000
32.372208,-0.0000000,-0.0000000,0.0000000,0.0010000,0.0110000,0.9960000,8.10000,0.40000,-28.30000
32.415917,-0.0000000,-0.0000000,0.0000000,0.0010000,0.0110000,0.9960000,8.10000,0.50000,-28.30000
32.467314,-0.0000000,-0.0000000,0.0000000,0.0010000,0.0110000,0.9970000,8.10000,0.30000,-28.40000
32.515502,-0.0000000,-0.0000000,0.0000000,0.0010000,0.0110000,0.9950000,8.00000,0.30000,-28.30000
32.565428,-0.0000000,-0.0000000,0.0000000,0.0020000,0.0100000,0.9930000,8.00000,0.30000,-28.30000
32.618253,-0.0000000,-0.0000000,0.0000000,0.0010000,0.0100000,0.9960000,8.00000,0.20000,-28.30000
32.665756,-0.0000000,-0.0000000,0.0000000,0.0020000,0.0100000,0.9950000,8.10000,0.40000,-28.30000
32.714864,-0.0000000,-0.0000000,0.0000000,0.0020000,0.0100000,0.9950000,8.10000,0.30000,-28.30000
32.780204,-0.0000000,-0.0000000,0.0000000,0.0020000,0.0100000,0.9950000,8.00000,0.30000,-28.40000
32.814579,-0.0000000,-0.0000000,0.0000000,0.0020000,0.0100000,0.9950000,8.00000,0.30000,-28.30000
32.865601,-0.0000000,-0.0000000,0.0000000,0.0010000,0.0110000,0.9950000,8.10000,0.30000,-28.40000
32.915100,-0.0000000,-0.0000000,0.0000000,0.0040000,0.0090000,0.9940000,8.10000,0.30000,-28.40000
32.966796,-0.0000000,-0.0000000,0.0000000,0.0020000,0.0110000,0.9950000,8.10000,0.40000,-28.40000
33.014344,-0.0000000,-0.0000000,0.0000000,0.0020000,0.0100000,0.9960000,8.20000,0.40000,-28.30000
33.064190,-0.0000000,-0.0000000,0.0000000,0.0020000,0.0100000,0.9940000,8.00000,0.30000,-28.30000
33.114021,-0.0000000,-0.0000000,0.0000000,0.0020000,0.0110000,0.9940000,7.90000,0.40000,-28.20000
33.164105,-0.0000000,-0.0000000,0.0000000,0.0030000,0.0090000,0.9950000,8.10000,0.20000,-28.30000
33.214540,-0.0000000,-0.0000000,0.0000000,0.0010000,0.0110000,0.9970000,8.00000,0.30000,-28.20000
33.263743,-0.0000000,-0.0000000,0.0000000,0.0020000,0.0110000,0.9960000,7.90000,0.20000,-28.20000
33.313722,-0.0000000,-0.0000000,0.0000000,0.0010000,0.0100000,0.9960000,8.00000,0.20000,-28.20000
33.363877,-0.0000000,-0.0000000,0.0000000,0.0010000,0.0100000,0.9950000,8.10000,0.30000,-28.30000
33.413939,-0.0000000,-0.0000000,0.0000000,0.0020000,0.0110000,0.9950000,8.00000,0.10000,-28.30000
33.466248,-0.0000000,-0.0000000,0.0000000,0.0020000,0.0110000,0.9950000,7.90000,0.20000,-28.30000
33.513274,-0.0000000,-0.0000000,0.0000000,0.0030000,0.0090000,0.9930000,8.00000,0.30000,-28.40000
33.568195,-0.2440000,-0.1220000,0.0000000,-0.0050000,0.0110000,1.0020000,7.90000,0.20000,-28.30000
33.613275,0.1830000,0.0610000,0.0000000,-0.0010000,0.0160000,0.9980000,8.10000,0.30000,-28.30000
33.664773,-0.0000000,-0.0000000,0.0000000,0.0030000,0.0100000,0.9920000,8.10000,0.20000,-28.40000
33.713683,-0.0000000,-0.0000000,0.0000000,0.0030000,0.0140000,0.9950000,8.20000,0.20000,-28.40000
33.767121,-0.0000000,-0.0000000,0.0000000,0.0030000,0.0090000,0.9950000,8.00000,0.30000,-28.30000
33.812678,-0.0000000,-0.0000000,0.0000000,0.0010000,0.0070000,0.9960000,8.10000,0.30000,-28.40000
33.862684,-0.0000000,-0.0000000,0.0000000,0.0020000,0.0130000,0.9950000,8.10000,0.20000,-28.40000
33.916704,-0.0000000,-0.0000000,0.0000000,0.0010000,0.0100000,0.9960000,8.10000,0.30000,-28.40000
33.962792,-0.0000000,-0.0000000,0.0000000,0.0030000,0.0120000,0.9950000,8.10000,0.20000,-28.30000
34.012195,-0.0000000,-0.0000000,0.0000000,0.0010000,0.0100000,0.9950000,8.10000,0.30000,-28.40000
34.062398,-0.0000000,-0.0000000,0.0000000,0.0020000,0.0090000,0.9960000,8.20000,0.20000,-28.40000
34.111976,0.0610000,-0.0000000,0.0000000,0.0020000,0.0110000,0.9960000,8.10000,0.20000,-28.30000
34.161575,0.1220000,-0.0000000,0.0000000,0.0020000,0.0090000,0.9950000,8.10000,0.30000,-28.30000
34.216961,-0.0000000,-0.0000000,0.0000000,0.0020000,0.0110000,0.9960000,8.00000,0.30000,-28.40000
34.261196,-0.0000000,0.0610000,0.0000000,0.0020000,0.0110000,0.9950000,8.00000,0.40000,-28.40000
34.314345,-0.0000000,-0.0000000,0.0000000,0.0020000,0.0110000,0.9950000,8.00000,0.20000,-28.30000
34.361395,-0.0000000,-0.0610000,0.0000000,0.0020000,0.0110000,0.9950000,8.20000,0.40000,-28.40000
34.411376,-0.0000000,-0.0610000,0.0000000,0.0020000,0.0100000,0.9950000,8.00000,0.20000,-28.30000
34.468426,-0.0000000,-0.0000000,0.0000000,0.0020000,0.0110000,0.9950000,8.10000,0.40000,-28.20000
34.510943,-0.0000000,-0.0000000,0.0000000,0.0010000,0.0110000,0.9960000,8.20000,0.40000,-28.30000
34.561086,-0.0000000,-0.0000000,0.0000000,0.0020000,0.0100000,0.9950000,8.10000,0.30000,-28.30000
34.610811,-0.0000000,-0.0000000,0.0000000,0.0020000,0.0100000,0.9960000,8.00000,0.30000,-28.20000
34.660918,-0.0000000,-0.0000000,0.0000000,0.0020000,0.0100000,0.9950000,8.00000,0.10000,-28.20000
34.710691,-0.0000000,-0.0000000,0.0000000,0.0020000,0.0100000,0.9950000,7.90000,0.20000,-28.30000
34.760314,-0.0000000,-0.0000000,0.0000000,0.0030000,0.0110000,0.9960000,8.10000,0.10000,-28.30000
34.813132,-0.0000000,-0.0000000,0.0000000,0.0020000,0.0100000,0.9950000,8.00000,0.20000,-28.30000
34.860012,-0.0000000,-0.0000000,0.0000000,0.0020000,0.0110000,0.9960000,7.90000,0.40000,-28.40000
34.924158,-0.0000000,-0.0000000,0.0000000,0.0020000,0.0100000,0.9950000,7.90000,0.20000,-28.40000
34.959915,-0.0000000,-0.0000000,0.0000000,0.0020000,0.0100000,0.9940000,8.10000,0.20000,-28.40000
35.012815,-0.0000000,-0.0000000,0.0000000,0.0010000,0.0110000,0.9960000,8.30000,0.20000,-28.40000
35.060721,-0.0000000,-0.0000000,0.0000000,0.0020000,0.0110000,0.9950000,8.10000,0.20000,-28.30000
35.110243,-0.0000000,-0.0000000,0.0000000,0.0010000,0.0110000,0.9950000,8.20000,0.30000,-28.30000
35.159409,-0.0000000,-0.0000000,0.0000000,0.0030000,0.0110000,0.9960000,8.10000,0.40000,-28.20000
35.209490,-0.0000000,-0.0000000,0.0000000,0.0020000,0.0120000,0.9960000,8.10000,0.40000,-28.30000
35.259229,-0.0000000,-0.0000000,0.0000000,0.0010000,0.0100000,0.9960000,8.00000,0.60000,-28.20000
35.309394,-0.0000000,-0.0000000,0.0000000,0.0020000,0.0120000,0.9950000,8.00000,0.40000,-28.30000
35.358924,-0.0000000,-0.0000000,0.0000000,0.0010000,0.0110000,0.9950000,8.10000,0.20000,-28.30000
35.412874,-0.0000000,-0.0000000,0.0000000,0.0020000,0.0110000,0.9950000,8.10000,0.30000,-28.30000
35.458701,-0.0000000,-0.0000000,0.0000000,0.0010000,0.0110000,0.9950000,8.10000,0.30000,-28.20000
35.512567,-0.0000000,-0.0000000,0.0000000,0.0010000,0.0110000,0.9960000,8.00000,0.40000,-28.30000
35.558416,-0.0000000,-0.0000000,0.0000000,0.0020000,0.0100000,0.9950000,8.00000,0.40000,-28.30000
35.639783,-0.0000000,-0.0000000,0.0000000,0.0010000,0.0110000,0.9950000,8.00000,0.30000,-28.40000
35.658421,-0.0000000,-0.0000000,0.0000000,0.0010000,0.0110000,0.9940000,7.90000,0.40000,-28.40000
35.708168,-0.0000000,-0.0000000,0.0000000,0.0010000,0.0100000,0.9960000,8.00000,0.30000,-28.30000
35.758219,-0.0000000,-0.0000000,0.0000000,0.0020000,0.0110000,0.9960000,7.90000,0.40000,-28.40000
35.807930,-0.0000000,-0.0000000,0.0000000,0.0030000,0.0110000,0.9950000,8.00000,0.50000,-28.30000
35.857859,-0.0000000,-0.0000000,0.0000000,0.0010000,0.0100000,0.9960000,8.00000,0.30000,-28.40000
35.907884,-0.0000000,-0.0000000,0.0000000,0.0020000,0.0110000,0.9940000,8.00000,0.40000,-28.40000
35.958313,-0.0000000,-0.0000000,0.0000000,0.0020000,0.0110000,0.9950000,8.10000,0.30000,-28.40000
36.007656,-0.0000000,-0.0000000,0.0000000,0.0030000,0.0120000,0.9950000,7.90000,0.40000,-28.40000
36.058361,-0.0000000,-0.0000000,0.0000000,-0.0000000,0.0070000,0.9960000,8.10000,0.30000,-28.50000
36.107542,-0.0000000,-0.0000000,0.0000000,0.0030000,0.0110000,0.9960000,8.10000,0.30000,-28.40000
36.157189,-0.0000000,-0.0000000,0.0000000,0.0010000,0.0110000,0.9950000,8.00000,0.30000,-28.40000
36.207009,-0.0000000,-0.0000000,0.0000000,0.0010000,0.0120000,0.9960000,8.00000,0.20000,-28.40000
36.258652,-0.0000000,-0.0000000,0.0000000,0.0020000,0.0120000,0.9950000,7.90000,0.30000,-28.30000
36.306779,-0.0000000,-0.0000000,0.0000000,0.0040000,0.0060000,0.9950000,8.00000,0.30000,-28.40000
36.357105,-0.0000000,-0.0000000,0.0000000,0.0020000,0.0090000,0.9960000,8.00000,0.30000,-28.30000
36.410763,-0.0000000,-0.0000000,0.0000000,0.0020000,0.0090000,0.9960000,8.00000,0.20000,-28.40000
36.462823,-0.0000000,-0.0000000,0.0000000,0.0020000,0.0120000,0.9950000,8.00000,0.20000,-28.40000
36.511253,-0.0000000,-0.0000000,0.0000000,0.0020000,0.0100000,0.9950000,8.00000,0.30000,-28.30000
36.560259,-0.0000000,-0.0000000,0.0000000,0.0020000,0.0100000,0.9950000,8.10000,0.20000,-28.30000
36.606618,4.1500000,-0.2440000,0.1830000,-0.0250000,0.1070000,0.9350000,8.10000,0.20000,-28.30000
36.656824,1.8920000,0.4880000,0.0000000,-0.0020000,0.0210000,0.9930000,8.10000,0.20000,-28.40000
36.706252,2.5020000,0.6710000,0.0000000,-0.0010000,0.0180000,0.9950000,8.00000,0.20000,-28.30000
36.756086,-0.9160000,-0.1830000,0.0000000,-0.0000000,0.0110000,0.9970000,8.00000,0.10000,-28.30000
36.805754,1.9530000,0.4270000,0.0000000,-0.0020000,0.0230000,0.9950000,8.20000,0.10000,-28.30000
36.858066,3.0520000,0.6100000,0.0000000,-0.0010000,0.0220000,0.9940000,8.20000,0.00000,-28.30000
36.905684,2.4410000,0.6100000,0.0000000,0.0020000,0.0170000,0.9960000,8.20000,0.00000,-28.30000
36.956927,1.9530000,0.3660000,0.0000000,-0.0000000,0.0240000,0.9940000,8.10000,0.10000,-28.30000
37.005416,5.7980000,0.7930000,-0.1830000,-0.0010000,0.0210000,0.9980000,8.10000,0.00000,-28.40000
37.055343,13.1230000,1.2210000,0.2440000,-0.0010000,0.0350000,0.9960000,8.00000,0.00000,-28.40000
37.105568,8.4230000,1.2210000,-0.3660000,-0.0070000,0.0500000,0.9880000,8.10000,-0.20000,-28.30000
37.155320,11.8410000,2.0750000,0.0610000,0.0010000,0.0490000,0.9960000,8.20000,-0.50000,-28.30000
37.205128,18.7380000,2.6250000,-0.0610000,-0.0100000,0.0680000,0.9890000,8.30000,-0.60000,-28.10000
37.255237,9.3990000,-0.4270000,0.4270000,-0.0030000,0.0810000,0.9860000,8.30000,-1.10000,-28.20000
37.305072,17.8220000,3.7230000,-0.6100000,-0.0060000,0.0620000,1.0080000,8.20000,-1.30000,-28.20000
37.356101,14.0990000,-0.9160000,0.5490000,-0.0160000,0.1310000,0.9730000,8.40000,-1.80000,-28.10000
37.404891,7.4460000,0.7320000,-0.3660000,-0.0080000,0.1020000,1.0040000,8.30000,-2.30000,-28.00000
37.458031,27.8320000,2.3190000,0.0000000,-0.0170000,0.1350000,0.9840000,8.50000,-2.60000,-27.90000
37.515502,21.6670000,1.2820000,0.0000000,-0.0170000,0.1640000,0.9750000,8.70000,-3.30000,-27.60000
37.556285,15.8690000,-1.1600000,0.3050000,-0.0110000,0.1710000,0.9760000,8.50000,-3.60000,-27.90000
37.604355,17.4560000,1.0380000,-0.6710000,-0.0220000,0.2000000,0.9660000,8.50000,-4.00000,-27.70000
37.654382,9.6440000,-0.9770000,0.0000000,-0.0110000,0.1920000,0.9770000,8.60000,-4.20000,-27.60000
37.705375,28.4420000,-0.1220000,0.0000000,-0.0110000,0.1990000,0.9840000,8.50000,-4.70000,-27.50000
37.753925,21.3620000,1.0380000,-0.7930000,-0.0190000,0.2350000,0.9610000,8.50000,-5.20000,-27.50000
37.804519,22.0340000,1.6480000,-0.9160000,-0.0130000,0.2420000,0.9760000,8.50000,-5.70000,-27.40000
37.873504,17.9440000,-0.2440000,-0.2440000,-0.0240000,0.2860000,0.9390000,8.50000,-6.20000,-27.10000
37.904854,12.8780000,-0.0610000,-0.1830000,-0.0110000,0.2830000,0.9550000,8.50000,-6.60000,-27.10000
37.953081,19.2260000,0.8540000,-0.7930000,-0.0260000,0.2760000,0.9590000,8.50000,-7.00000,-26.90000
38.006221,37.3540000,-0.6710000,-0.3050000,-0.0240000,0.3230000,0.9410000,8.60000,-7.50000,-26.70000
38.053431,32.1040000,-3.1130000,0.9160000,-0.0170000,0.3400000,0.9350000,8.30000,-8.10000,-26.50000
38.103181,31.3110000,-0.4880000,0.6710000,-0.0030000,0.3760000,0.9160000,8.50000,-8.90000,-26.30000
38.153124,25.5130000,1.7090000,-1.2820000,-0.0140000,0.3840000,0.9220000,8.50000,-9.50000,-25.90000
38.219280,24.9020000,0.9770000,-0.7930000,-0.0080000,0.3960000,0.9200000,8.60000,-10.00000,-25.90000
38.252853,31.7990000,-0.0000000,0.0000000,-0.0130000,0.4310000,0.8930000,8.60000,-10.60000,-25.60000
38.305394,16.4790000,-3.3570000,2.5630000,-0.0090000,0.4520000,0.8800000,8.50000,-11.00000,-25.40000
38.352509,2.4410000,0.3660000,-0.9770000,-0.0000000,0.4590000,0.8750000,8.50000,-11.20000,-25.10000
38.402879,10.4370000,-2.8080000,1.5870000,-0.0150000,0.4540000,0.8860000,8.40000,-11.40000,-25.20000
38.452458,11.1080000,0.3660000,-0.5490000,-0.0090000,0.4660000,0.8770000,8.50000,-11.70000,-25.10000
38.502596,14.5870000,-0.3660000,0.0610000,-0.0140000,0.4710000,0.8750000,8.40000,-11.90000,-25.00000
38.559986,12.1460000,-1.5870000,0.8540000,-0.0150000,0.4830000,0.8690000,8.50000,-12.10000,-24.70000
38.602249,19.9580000,-0.3050000,0.3660000,-0.0140000,0.4900000,0.8660000,8.40000,-12.30000,-24.50000
38.651986,21.0570000,-1.4650000,1.0990000,-0.0130000,0.5140000,0.8490000,8.30000,-12.70000,-24.30000
38.702097,12.4510000,0.3050000,0.0000000,-0.0050000,0.5160000,0.8500000,8.60000,-13.10000,-24.30000
38.751696,8.1790000,-0.5490000,0.1830000,-0.0130000,0.5300000,0.8380000,8.40000,-13.40000,-24.00000
38.803521,4.0280000,0.3050000,-0.3050000,-0.0080000,0.5280000,0.8440000,8.40000,-13.40000,-24.00000
38.851559,11.9020000,1.7700000,-1.5260000,-0.0140000,0.5300000,0.8390000,8.40000,-13.70000,-23.90000
38.902539,9.7660000,-1.0990000,1.0380000,-0.0110000,0.5450000,0.8320000,8.40000,-13.90000,-23.80000
38.972434,0.0610000,-0.5490000,0.0610000,-0.0080000,0.5490000,0.8280000,8.40000,-14.00000,-23.60000
39.001169,-2.0750000,-0.9160000,0.6710000,-0.0110000,0.5430000,0.8300000,8.50000,-14.00000,-23.60000
39.051806,-0.7320000,-0.0000000,-0.6100000,-0.0090000,0.5430000,0.8330000,8.40000,-13.90000,-23.60000
39.101080,3.1740000,0.7930000,-0.7320000,-0.0040000,0.5340000,0.8420000,8.40000,-13.90000,-23.70000
39.151890,5.6150000,-0.8540000,0.7320000,-0.0070000,0.5460000,0.8300000,8.30000,-14.00000,-23.70000
39.201067,12.0850000,-1.2210000,0.9770000,-0.0170000,0.5620000,0.8160000,8.50000,-14.10000,-23.60000
39.250704,7.0800000,-0.0000000,0.0000000,-0.0040000,0.5680000,0.8130000,8.50000,-14.20000,-23.40000
39.303646,-0.1220000,-0.0000000,0.4270000,-0.0060000,0.5610000,0.8220000,8.40000,-14.30000,-23.40000
39.354081,4.6390000,0.6710000,-0.3660000,-0.0110000,0.5630000,0.8200000,8.20000,-14.40000,-23.30000
39.403378,-0.4880000,0.0610000,0.0000000,-0.0070000,0.5740000,0.8120000,8.30000,-14.70000,-23.30000
39.456169,-3.5400000,1.2820000,-0.7320000,-0.0060000,0.5640000,0.8190000,8.30000,-14.60000,-23.10000
39.501835,5.1880000,0.8540000,-0.7320000,-0.0100000,0.5620000,0.8200000,8.30000,-14.70000,-23.20000
39.550376,7.8120000,-0.8540000,0.1830000,-0.0070000,0.5740000,0.8100000,8.40000,-15.00000,-23.10000
39.600096,4.3330000,-0.1830000,0.1830000,-0.0060000,0.5770000,0.8100000,8.60000,-15.00000,-23.00000
39.649860,-1.9530000,-0.0000000,0.0000000,-0.0070000,0.5830000,0.8070000,8.40000,-14.80000,-23.20000
39.699848,-4.7610000,-0.0610000,0.2440000,-0.0060000,0.5740000,0.8100000,8.30000,-14.90000,-23.20000
39.749695,-0.0610000,0.1220000,-0.0610000,-0.0070000,0.5720000,0.8140000,8.30000,-14.80000,-23.20000
39.800819,4.3330000,-0.8540000,0.6100000,-0.0060000,0.5730000,0.8100000,8.20000,-14.90000,-23.10000
39.849440,-1.8920000,0.3660000,0.0000000,-0.0070000,0.5770000,0.8080000,8.30000,-15.00000,-23.20000
39.898925,2.3800000,-0.0000000,0.0000000,-0.0070000,0.5740000,0.8130000,8.40000,-14.90000,-23.00000
39.949401,2.9300000,0.3660000,-0.1830000,-0.0090000,0.5830000,0.8020000,8.40000,-14.90000,-23.00000
39.998925,-0.3050000,-0.2440000,0.3050000,-0.0000000,0.5800000,0.8080000,8.50000,-15.00000,-23.10000
40.049026,-0.6100000,-1.0990000,0.6710000,-0.0040000,0.5810000,0.8070000,8.30000,-15.00000,-23.10000
40.098860,-2.3800000,0.9160000,-0.4880000,-0.0040000,0.5750000,0.8120000,8.40000,-14.90000,-23.00000
40.148855,3.2960000,-0.1220000,0.3050000,-0.0080000,0.5760000,0.8070000,8.30000,-14.90000,-23.00000
40.207985,2.5630000,-1.1600000,1.0380000,-0.0020000,0.5870000,0.8010000,8.40000,-14.90000,-22.80000
40.251752,1.8920000,0.0610000,0.0610000,-0.0090000,0.5830000,0.8030000,8.40000,-15.00000,-22.90000
40.298892,-1.0380000,-0.0610000,0.0610000,-0.0030000,0.5820000,0.8060000,8.40000,-15.10000,-23.00000
40.348264,-0.9770000,-0.0000000,0.1830000,-0.0070000,0.5810000,0.8040000,8.50000,-15.00000,-23.00000
40.399321,-1.0380000,1.4650000,-1.0380000,-0.0020000,0.5800000,0.8090000,8.50000,-15.20000,-22.90000
40.458669,1.7700000,-0.4270000,0.3050000,-0.0030000,0.5780000,0.8100000,8.40000,-15.00000,-22.90000
40.498214,2.3800000,0.3050000,0.0000000,-0.0070000,0.5820000,0.8050000,8.40000,-15.00000,-23.00000
40.552843,0.0610000,0.3050000,-0.2440000,-0.0050000,0.5840000,0.8020000,8.40000,-15.00000,-23.10000
40.599344,0.6100000,-0.0000000,-0.0610000,-0.0060000,0.5810000,0.8080000,8.30000,-14.90000,-22.90000
40.647988,1.3430000,0.3660000,-0.2440000,-0.0070000,0.5800000,0.8080000,8.40000,-15.10000,-23.00000
40.697742,4.8830000,-1.2820000,0.8540000,-0.0090000,0.5820000,0.8060000,8.40000,-14.90000,-22.70000
40.750432,5.1880000,-0.4270000,0.3660000,0.0010000,0.5880000,0.8040000,8.40000,-15.00000,-22.90000
40.797423,1.4650000,-0.7320000,0.5490000,-0.0080000,0.5940000,0.7930000,8.30000,-15.10000,-22.80000
40.862066,1.1600000,-1.4040000,0.9160000,-0.0030000,0.6000000,0.7910000,8.20000,-15.10000,-22.80000
40.899449,-8.6670000,-1.3430000,1.4040000,0.0050000,0.5870000,0.8010000,8.10000,-15.10000,-22.70000
40.951276,-3.4790000,-0.9160000,0.2440000,0.0050000,0.5760000,0.8100000,8.10000,-15.10000,-23.00000
40.996906,4.5780000,0.0610000,-0.1830000,0.0030000,0.5790000,0.8110000,8.10000,-15.20000,-22.90000
41.076611,7.0800000,0.5490000,-0.4880000,0.0070000,0.6020000,0.7920000,8.30000,-15.20000,-22.90000
41.096685,-2.0140000,1.3430000,-0.9160000,0.0000000,0.6000000,0.7890000,8.30000,-15.40000,-22.70000
41.149605,-2.5020000,3.7230000,-3.1740000,-0.0010000,0.5910000,0.8000000,8.30000,-15.30000,-22.80000
41.202687,-1.8310000,1.8310000,-1.5870000,-0.0080000,0.5870000,0.8000000,8.40000,-15.30000,-22.90000
41.257647,-2.8690000,1.2820000,-0.5490000,-0.0070000,0.5910000,0.7950000,8.40000,-15.30000,-22.90000
41.296272,0.3660000,2.3800000,-1.1600000,-0.0090000,0.5840000,0.8050000,8.50000,-15.20000,-22.70000
41.354468,2.7470000,0.2440000,0.6710000,-0.0110000,0.5880000,0.8030000,8.50000,-15.20000,-22.80000
41.407984,2.0750000,1.4040000,-0.4880000,-0.0070000,0.5950000,0.7940000,8.40000,-15.10000,-22.80000
41.459045,-2.8690000,1.4650000,-0.7930000,-0.0090000,0.5900000,0.7990000,8.50000,-15.20000,-22.90000
41.502271,-3.9060000,0.9770000,-0.6100000,-0.0120000,0.5860000,0.8030000,8.50000,-15.10000,-22.80000
41.545724,-0.9160000,2.2580000,-1.5260000,-0.0120000,0.5830000,0.8060000,8.50000,-15.10000,-22.80000
41.595717,-2.1970000,0.6100000,-0.1830000,-0.0130000,0.5870000,0.8010000,8.50000,-15.20000,-22.80000
41.645673,3.2350000,-1.2820000,0.9770000,-0.0130000,0.5910000,0.8010000,8.40000,-15.10000,-22.80000
41.695702,-2.3800000,1.7700000,-1.1600000,-0.0070000,0.5880000,0.8050000,8.50000,-15.20000,-22.80000
41.745253,1.0380000,1.4650000,-0.7930000,-0.0150000,0.5840000,0.8020000,8.50000,-15.20000,-22.80000
41.795252,-0.4880000,0.6710000,-0.3660000,-0.0140000,0.5880000,0.8010000,8.40000,-15.00000,-22.90000
41.845015,-2.8080000,0.2440000,-0.1220000,-0.0120000,0.5850000,0.8010000,8.50000,-15.10000,-22.90000
41.895140,0.6100000,0.4880000,-0.3050000,-0.0150000,0.5810000,0.8080000,8.70000,-15.10000,-23.00000
41.945195,1.5260000,0.1830000,-0.0610000,-0.0150000,0.5830000,0.8070000,8.50000,-15.20000,-23.00000
41.995521,3.1740000,1.4040000,-0.7320000,-0.0160000,0.5830000,0.8050000,8.50000,-15.10000,-23.00000
42.044770,1.5870000,-0.0000000,-0.1220000,-0.0190000,0.5850000,0.8050000,8.60000,-14.90000,-23.00000
42.094677,1.5870000,0.5490000,-0.3050000,-0.0210000,0.5860000,0.8010000,8.50000,-15.00000,-22.90000
42.144315,2.3190000,0.9160000,-0.4880000,-0.0140000,0.5880000,0.8040000,8.60000,-15.10000,-22.80000
42.196813,2.7470000,-0.0000000,0.4270000,-0.0200000,0.5860000,0.8040000,8.60000,-15.20000,-22.70000
42.244326,3.6010000,0.4270000,-0.2440000,-0.0180000,0.5910000,0.7990000,8.50000,-15.10000,-22.60000
42.294244,1.9530000,0.2440000,0.0000000,-0.0200000,0.5890000,0.7990000,8.60000,-15.10000,-22.50000
42.343965,3.9060000,0.5490000,-0.1830000,-0.0200000,0.5920000,0.7960000,8.60000,-15.30000,-22.50000
42.394132,0.7320000,0.3660000,-0.1830000,-0.0200000,0.6000000,0.7920000,8.60000,-15.30000,-22.70000
42.443970,0.1830000,-0.3050000,0.3050000,-0.0160000,0.5900000,0.7980000,8.70000,-15.40000,-22.60000
42.493990,-0.4880000,0.1220000,-0.1220000,-0.0180000,0.5940000,0.7940000,8.80000,-15.50000,-22.70000
42.543594,2.3800000,0.1220000,0.1220000,-0.0170000,0.5960000,0.7970000,8.70000,-15.50000,-22.70000
42.594169,0.2440000,1.1600000,-0.4270000,-0.0170000,0.5970000,0.7940000,8.80000,-15.40000,-22.60000
42.644349,-0.1220000,-0.1830000,0.3660000,-0.0220000,0.5920000,0.7970000,8.70000,-15.40000,-22.60000
42.694900,-2.5630000,1.3430000,-0.9770000,-0.0230000,0.5960000,0.7930000,8.60000,-15.30000,-22.50000
42.743326,1.0380000,-0.2440000,0.5490000,-0.0190000,0.5910000,0.8020000,8.80000,-15.30000,-22.50000
42.794093,1.9530000,0.7320000,-0.2440000,-0.0190000,0.5980000,0.7930000,8.70000,-15.20000,-22.70000
42.855355,0.7320000,0.3050000,0.0000000,-0.0210000,0.5940000,0.7930000,8.80000,-15.20000,-22.50000
42.893005,-0.7320000,1.5260000,-1.0380000,-0.0180000,0.6010000,0.7920000,8.70000,-15.30000,-22.50000
42.942734,1.4040000,-0.3660000,1.0380000,-0.0230000,0.5950000,0.7930000,8.60000,-15.40000,-22.40000
42.995505,3.3570000,0.4270000,0.6100000,-0.0180000,0.6000000,0.7920000,8.70000,-15.40000,-22.50000
43.046237,1.2820000,0.5490000,-0.3050000,-0.0210000,0.6030000,0.7890000,8.70000,-15.70000,-22.40000
43.092574,0.8540000,-0.0000000,0.1830000,-0.0250000,0.6020000,0.7890000,8.60000,-15.50000,-22.40000
43.142385,-1.0990000,0.4270000,-0.1220000,-0.0200000,0.6000000,0.7940000,8.80000,-15.60000,-22.40000
43.195035,-0.0000000,-0.3660000,0.4270000,-0.0210000,0.5960000,0.7960000,8.80000,-15.50000,-22.50000
43.242446,0.7930000,0.2440000,-0.1830000,-0.0200000,0.6020000,0.7920000,8.70000,-15.40000,-22.40000
43.295519,-0.1830000,-0.0000000,0.1220000,-0.0210000,0.5990000,0.7920000,8.70000,-15.40000,-22.50000
43.341910,1.3430000,0.4880000,-0.1830000,-0.0210000,0.6010000,0.7920000,8.70000,-15.40000,-22.50000
43.392934,0.0610000,-0.6710000,0.6710000,-0.0220000,0.6030000,0.7900000,8.50000,-15.40000,-22.60000
43.441754,0.9770000,-0.4270000,0.6100000,-0.0190000,0.5990000,0.7920000,8.70000,-15.30000,-22.40000
43.491578,1.2820000,-0.4270000,0.4270000,-0.0210000,0.5990000,0.7920000,8.70000,-15.40000,-22.50000
43.541793,2.3190000,-0.0610000,0.0610000,-0.0180000,0.6040000,0.7900000,8.70000,-15.40000,-22.40000
43.607589,-0.0000000,0.1220000,0.0610000,-0.0190000,0.6020000,0.7900000,8.90000,-15.50000,-22.50000
43.641515,-0.0000000,0.4880000,-0.2440000,-0.0190000,0.6010000,0.7910000,8.70000,-15.40000,-22.50000
43.691403,3.4180000,-0.3050000,0.6710000,-0.0200000,0.6060000,0.7850000,8.60000,-15.40000,-22.40000
43.741363,-0.4270000,0.5490000,-0.2440000,-0.0160000,0.6050000,0.7870000,8.70000,-15.60000,-22.60000
43.790939,1.0380000,0.7930000,-0.3660000,-0.0200000,0.6020000,0.7920000,8.60000,-15.70000,-22.30000
43.842338,0.9160000,0.2440000,1.2820000,-0.0190000,0.6040000,0.7900000,8.60000,-15.70000,-22.50000
43.890792,-0.2440000,0.7320000,-0.4880000,-0.0190000,0.6070000,0.7870000,8.60000,-15.50000,-22.20000
43.943004,-2.0140000,0.0610000,-0.1220000,-0.0200000,0.6050000,0.7880000,8.60000,-15.50000,-22.30000
43.990603,0.8540000,1.7700000,-1.0380000,-0.0210000,0.6020000,0.7890000,8.70000,-15.50000,-22.40000
44.053217,0.3050000,-1.0380000,0.6710000,-0.0200000,0.6040000,0.7880000,8.70000,-15.60000,-22.30000
44.090456,0.7320000,-0.4270000,0.4880000,-0.0210000,0.6060000,0.7880000,8.70000,-15.50000,-22.30000
44.141933,-0.9770000,-0.1830000,0.2440000,-0.0190000,0.6040000,0.7880000,8.70000,-15.60000,-22.40000
44.190311,0.7320000,-0.0000000,0.3050000,-0.0170000,0.6000000,0.7920000,8.70000,-15.80000,-22.40000
44.240976,-0.6100000,-0.0610000,-0.0610000,-0.0130000,0.6060000,0.7880000,8.70000,-15.70000,-22.50000
44.289943,0.9770000,0.6710000,-0.3050000,-0.0190000,0.6020000,0.7910000,8.50000,-15.60000,-22.30000
44.339904,-0.4270000,-0.0000000,-0.0610000,-0.0210000,0.6040000,0.7870000,8.60000,-15.60000,-22.40000
44.390576,0.3660000,0.6710000,-0.0610000,-0.0160000,0.6030000,0.7910000,8.40000,-15.50000,-22.40000
44.446340,-0.6710000,0.1220000,0.0000000,-0.0200000,0.6030000,0.7900000,8.50000,-15.60000,-22.40000
44.490084,-1.5870000,-0.1220000,0.3050000,-0.0180000,0.6040000,0.7880000,8.60000,-15.50000,-22.50000
44.549881,-0.9160000,-0.6100000,0.5490000,-0.0190000,0.6010000,0.7890000,8.60000,-15.40000,-22.50000
44.589245,1.2820000,0.3660000,0.0000000,-0.0180000,0.5970000,0.7950000,8.70000,-15.60000,-22.50000
44.641139,-1.6480000,0.0610000,0.1830000,-0.0160000,0.6050000,0.7910000,8.60000,-15.50000,-22.60000
44.689511,-3.5400000,0.6710000,-0.4880000,-0.0200000,0.5980000,0.7920000,8.50000,-15.40000,-22.60000
44.744167,-4.9440000,-0.0000000,0.0000000,-0.0190000,0.5950000,0.7960000,8.70000,-15.30000,-22.60000
44.790120,-4.5170000,-0.2440000,0.4270000,-0.0200000,0.5910000,0.7990000,8.80000,-15.20000,-22.50000
44.838949,-5.0050000,0.1220000,0.0610000,-0.0160000,0.5890000,0.8000000,8.60000,-15.20000,-22.50000
44.888847,-4.0890000,0.7930000,-0.7320000,-0.0200000,0.5820000,0.8070000,8.70000,-15.00000,-22.50000
44.938883,-0.1220000,0.1830000,-0.1220000,-0.0220000,0.5830000,0.8020000,8.60000,-15.10000,-22.80000
44.988430,-0.3050000,0.3660000,0.0000000,-0.0180000,0.5820000,0.8080000,8.60000,-15.00000,-22.70000
45.038490,0.5490000,-0.0000000,0.0610000,-0.0210000,0.5860000,0.8030000,8.60000,-15.00000,-22.90000
45.088334,-5.4320000,0.3050000,-0.1220000,-0.0160000,0.5830000,0.8040000,8.60000,-14.90000,-22.90000
45.138502,-4.0890000,0.1220000,-0.1830000,-0.0220000,0.5800000,0.8060000,8.70000,-14.90000,-23.00000
45.189150,-10.5590000,0.3660000,-0.0610000,-0.0210000,0.5720000,0.8130000,8.70000,-14.90000,-23.00000
45.240967,-7.9350000,0.1830000,-0.6710000,-0.0180000,0.5620000,0.8200000,8.80000,-14.70000,-23.00000
45.288003,-6.7140000,1.4650000,-1.0380000,-0.0210000,0.5590000,0.8230000,8.90000,-14.60000,-23.00000
45.338660,-12.2680000,-0.0000000,-0.7930000,-0.0250000,0.5470000,0.8300000,8.90000,-14.20000,-23.30000
45.387799,-10.6200000,-0.6100000,0.8540000,-0.0260000,0.5440000,0.8280000,8.80000,-13.90000,-23.50000
45.454020,-14.6480000,-0.0610000,0.0000000,-0.0180000,0.5380000,0.8350000,8.70000,-13.90000,-23.80000
45.487575,-16.9070000,-0.1220000,-0.9770000,-0.0210000,0.5270000,0.8410000,8.70000,-13.70000,-24.00000
45.537500,-12.3290000,0.1220000,-0.7320000,-0.0240000,0.5010000,0.8560000,8.70000,-13.20000,-24.20000
45.587608,-13.3060000,-0.9770000,0.3660000,-0.0220000,0.5040000,0.8550000,8.70000,-12.90000,-24.40000
45.637349,-11.8410000,-0.5490000,-0.3660000,-0.0230000,0.4910000,0.8650000,8.80000,-12.50000,-24.40000
45.687459,-12.8170000,1.0990000,-0.4270000,-0.0190000,0.4840000,0.8680000,8.70000,-12.40000,-24.60000
45.737276,-13.0000000,1.2210000,-1.2210000,-0.0210000,0.4620000,0.8820000,8.70000,-12.10000,-24.60000
45.786954,-13.0620000,-0.0610000,0.9160000,-0.0200000,0.4580000,0.8830000,8.70000,-11.70000,-24.70000
45.836943,-11.9630000,2.7470000,-1.4650000,-0.0240000,0.4450000,0.8910000,8.60000,-11.40000,-24.80000
45.888905,-8.3620000,0.5490000,-0.3050000,-0.0270000,0.4450000,0.8880000,8.70000,-11.30000,-24.90000
45.936716,-21.4230000,0.1220000,-1.5870000,-0.0280000,0.4330000,0.8920000,8.70000,-11.10000,-25.20000
45.986654,-20.8740000,-0.7930000,-1.3430000,-0.0250000,0.4010000,0.9110000,8.70000,-10.60000,-25.50000
46.036448,-15.0760000,0.3050000,-0.3050000,-0.0210000,0.4020000,0.9090000,8.80000,-10.20000,-25.70000
46.086419,-14.2820000,-0.4880000,-0.0610000,-0.0300000,0.3890000,0.9140000,8.80000,-9.70000,-25.70000
46.136650,-17.5780000,-0.1830000,-0.6100000,-0.0260000,0.3710000,0.9220000,8.70000,-9.40000,-26.00000
46.186362,-19.8970000,-0.1830000,0.1220000,-0.0280000,0.3570000,0.9240000,8.70000,-9.10000,-26.00000
46.235921,-16.6630000,0.4270000,0.0000000,-0.0270000,0.3430000,0.9370000,8.80000,-8.60000,-26.30000
46.285901,-16.9680000,-0.0000000,-0.1830000,-0.0290000,0.3340000,0.9340000,8.80000,-8.30000,-26.40000
46.335741,-18.5550000,0.8540000,-0.2440000,-0.0280000,0.3080000,0.9440000,9.00000,-7.80000,-26.50000
46.385625,-18.1270000,-0.0000000,0.1830000,-0.0260000,0.3070000,0.9410000,8.70000,-7.50000,-26.80000
46.442671,-21.1180000,-0.0610000,0.4270000,-0.0260000,0.2860000,0.9530000,8.70000,-7.10000,-26.90000
46.487039,-18.4330000,-0.1220000,0.2440000,-0.0220000,0.2740000,0.9570000,8.60000,-6.70000,-27.10000
46.544496,-15.7470000,-0.2440000,0.1220000,-0.0260000,0.2600000,0.9590000,8.60000,-6.20000,-27.10000
46.586066,-17.1510000,-0.4880000,0.3660000,-0.0220000,0.2410000,0.9640000,8.60000,-5.90000,-27.20000
46.639208,-15.9300000,0.6100000,-0.2440000,-0.0230000,0.2320000,0.9630000,8.70000,-5.40000,-27.30000
46.685552,-19.7750000,-0.6710000,0.1220000,-0.0190000,0.2190000,0.9690000,8.80000,-5.10000,-27.40000
46.735131,-20.6910000,0.6100000,0.1220000,-0.0210000,0.2000000,0.9760000,8.80000,-4.70000,-27.50000
46.791332,-19.0430000,-2.4410000,0.4270000,-0.0210000,0.1830000,0.9720000,8.80000,-4.20000,-27.50000
46.837190,-30.3960000,-2.6860000,1.2820000,-0.0220000,0.1660000,0.9740000,8.60000,-3.80000,-27.80000
46.895908,-27.1000000,-1.4040000,-0.3660000,-0.0140000,0.1320000,0.9920000,8.60000,-3.10000,-28.00000
46.948756,-26.6110000,-4.5170000,0.5490000,-0.0150000,0.1250000,0.9830000,8.60000,-2.30000,-28.10000
46.997459,-33.5080000,-3.5400000,0.1830000,-0.0130000,0.0760000,0.9900000,8.40000,-1.70000,-28.10000
47.034596,-27.8930000,-4.5170000,0.3050000,-0.0020000,0.0420000,1.0030000,8.40000,-0.80000,-28.20000
47.109410,-18.6160000,-3.7230000,0.3660000,-0.0030000,0.0380000,0.9950000,8.10000,-0.30000,-28.30000
47.148961,-9.0940000,-1.7700000,0.0000000,-0.0020000,0.0210000,0.9970000,8.20000,0.00000,-28.20000
47.191507,-1.5870000,-0.3660000,0.0000000,-0.0000000,0.0140000,0.9970000,8.10000,0.10000,-28.20000
47.233973,-0.3050000,-0.3660000,0.0000000,-0.0000000,0.0160000,0.9940000,7.90000,0.10000,-28.10000
47.284057,-0.4880000,-0.0000000,-0.0610000,-0.0000000,0.0180000,0.9970000,8.00000,0.20000,-28.20000
47.333774,-1.2820000,-0.6100000,-0.1220000,-0.0000000,0.0130000,0.9940000,8.20000,0.10000,-28.30000
47.385939,-0.0000000,0.3050000,0.0610000,0.0020000,0.0160000,0.9980000,8.10000,0.20000,-28.30000
47.436541,-0.6100000,0.2440000,0.1830000,0.0020000,0.0080000,0.9950000,8.10000,0.20000,-28.20000
47.483318,1.2210000,0.5490000,-0.1830000,0.0010000,0.0100000,0.9950000,8.10000,0.20000,-28.20000
47.533591,0.6710000,1.0380000,-0.1220000,0.0020000,0.0140000,0.9960000,8.10000,0.20000,-28.30000
47.583376,-0.6710000,0.5490000,-0.0610000,0.0020000,0.0140000,0.9940000,8.00000,0.20000,-28.30000
47.634657,-0.9160000,0.7320000,-0.0610000,0.0020000,0.0140000,0.9980000,8.20000,0.30000,-28.30000
47.683129,-1.8920000,-0.0000000,0.0000000,0.0010000,0.0070000,0.9980000,8.10000,0.30000,-28.30000
47.733055,-0.9160000,-0.2440000,0.0000000,-0.0050000,0.0250000,0.9970000,8.10000,0.40000,-28.20000
47.782702,0.1830000,0.0610000,0.0000000,0.0020000,0.0090000,0.9950000,8.10000,0.40000,-28.40000
47.836562,0.1830000,0.1830000,0.0000000,0.0020000,0.0110000,0.9950000,8.00000,0.30000,-28.40000
47.882563,0.2440000,0.1220000,0.0000000,0.0010000,0.0110000,0.9980000,8.00000,0.40000,-28.20000
47.932529,0.1830000,0.1830000,0.0000000,0.0020000,0.0090000,0.9930000,8.10000,0.40000,-28.30000
47.986445,0.2440000,0.1830000,0.0000000,0.0020000,0.0110000,0.9960000,8.00000,0.20000,-28.40000
48.032645,0.1830000,0.1220000,0.0000000,0.0010000,0.0100000,0.9960000,7.90000,0.20000,-28.30000
48.082234,0.1830000,0.0610000,0.0000000,0.0020000,0.0120000,0.9950000,7.90000,0.20000,-28.30000
48.132414,0.2440000,0.1220000,0.0000000,0.0010000,0.0110000,0.9970000,8.00000,0.30000,-28.40000
48.181934,0.1830000,0.1220000,0.0000000,0.0020000,0.0120000,0.9950000,8.00000,0.30000,-28.20000
48.231931,0.1220000,0.0610000,0.0000000,0.0020000,0.0090000,0.9950000,8.10000,0.40000,-28.30000
48.282692,0.2440000,0.1220000,0.0000000,0.0010000,0.0110000,0.9950000,8.10000,0.30000,-28.20000
48.333746,0.1830000,0.1220000,0.0000000,0.0020000,0.0110000,0.9950000,8.00000,0.30000,-28.30000
48.381959,0.1830000,0.0610000,0.0000000,0.0010000,0.0110000,0.9950000,8.00000,0.30000,-28.40000
48.431866,0.1220000,0.1830000,0.0000000,0.0010000,0.0110000,0.9960000,8.10000,0.40000,-28.40000
48.481924,0.1830000,-0.0000000,0.0000000,0.0020000,0.0080000,0.9950000,8.10000,0.40000,-28.30000
48.532487,0.1830000,0.1220000,0.0000000,0.0010000,0.0100000,0.9940000,8.00000,0.40000,-28.40000
48.581799,0.1830000,0.1220000,0.0000000,0.0010000,0.0090000,0.9960000,8.00000,0.40000,-28.30000
48.631151,0.2440000,-0.0000000,0.0000000,0.0020000,0.0110000,0.9950000,8.00000,0.40000,-28.40000
48.681724,0.1830000,0.1220000,0.0000000,0.0020000,0.0110000,0.9960000,7.90000,0.40000,-28.30000
48.731123,0.1830000,0.1220000,0.0000000,0.0010000,0.0100000,0.9950000,8.00000,0.30000,-28.20000
48.781101,0.1830000,0.1220000,0.0000000,0.0020000,0.0110000,0.9950000,8.10000,0.20000,-28.20000
48.830886,0.1220000,0.1220000,0.0000000,0.0030000,0.0040000,0.9950000,8.00000,0.30000,-28.40000
48.880783,0.2440000,0.1830000,0.0000000,0.0030000,0.0140000,0.9960000,8.20000,0.10000,-28.30000
48.933347,0.1830000,0.1220000,0.0000000,0.0020000,0.0070000,0.9950000,8.20000,0.20000,-28.40000
48.980435,0.2440000,0.0610000,0.0000000,0.0020000,0.0120000,0.9970000,8.10000,0.30000,-28.50000
49.030333,0.1220000,0.1220000,0.0000000,0.0020000,0.0090000,0.9960000,8.10000,0.40000,-28.40000
49.080284,0.2440000,0.0610000,-0.0610000,0.0010000,0.0100000,0.9950000,8.20000,0.40000,-28.30000
49.132786,0.1830000,0.1220000,0.0000000,0.0020000,0.0100000,0.9950000,8.10000,0.40000,-28.40000
49.180045,0.1830000,-0.0000000,0.0000000,0.0020000,0.0110000,0.9950000,8.20000,0.50000,-28.20000
49.239539,0.1830000,0.0610000,0.0000000,0.0010000,0.0110000,0.9960000,8.10000,0.40000,-28.30000
49.280049,0.1830000,0.0610000,0.0000000,0.0010000,0.0090000,0.9950000,8.00000,0.40000,-28.30000
49.331548,0.1830000,0.1220000,0.0000000,0.0020000,0.0100000,0.9970000,8.00000,0.30000,-28.30000
49.379767,0.2440000,0.1220000,0.0000000,0.0010000,0.0110000,0.9960000,7.90000,0.30000,-28.20000
49.430920,0.0610000,0.1220000,0.0000000,0.0020000,0.0110000,0.9950000,7.90000,0.40000,-28.30000
49.479728,0.1220000,-0.0000000,0.0000000,0.0030000,0.0100000,0.9950000,8.00000,0.30000,-28.30000
49.529302,0.3050000,-0.0000000,0.0000000,0.0000000,0.0110000,0.9960000,7.90000,0.30000,-28.40000
49.590609,0.4270000,0.0610000,0.0000000,0.0020000,0.0120000,0.9960000,8.10000,0.20000,-28.30000
49.630464,0.7320000,0.6100000,0.0000000,0.0030000,0.0080000,0.9940000,8.00000,0.20000,-28.30000
49.682236,0.6100000,1.1600000,0.0610000,0.0040000,0.0090000,0.9960000,8.00000,0.10000,-28.40000
49.730683,1.4650000,1.7700000,-0.0610000,-0.0010000,0.0130000,0.9950000,8.00000,0.10000,-28.40000
49.779021,0.7320000,1.4040000,-0.1220000,0.0000000,0.0150000,0.9960000,8.10000,0.10000,-28.30000
49.829118,1.2820000,2.0140000,0.0610000,0.0020000,0.0110000,0.9990000,8.10000,0.30000,-28.20000
49.880805,0.7320000,1.6480000,0.0000000,-0.0100000,0.0140000,0.9900000,8.00000,0.20000,-28.30000
49.928748,0.6100000,1.0990000,-0.0610000,-0.0040000,0.0120000,0.9970000,8.00000,0.30000,-28.30000
49.978575,-0.0000000,0.1220000,0.0000000,-0.0060000,0.0160000,0.9940000,8.30000,0.30000,-28.30000
50.029067,-0.3660000,-1.2210000,-0.1220000,-0.0030000,0.0130000,0.9970000,8.20000,0.30000,-28.30000
50.079909,-0.3660000,-0.8540000,0.0000000,-0.0030000,0.0130000,0.9950000,8.20000,0.20000,-28.30000
50.128917,-0.4270000,-0.7930000,0.0000000,-0.0020000,0.0110000,0.9950000,8.00000,0.30000,-28.20000
50.178049,-0.0000000,-0.6100000,0.0000000,-0.0020000,0.0130000,0.9970000,7.90000,0.30000,-28.30000
50.228835,-0.0000000,-0.0610000,0.0000000,-0.0010000,0.0110000,0.9940000,8.10000,0.30000,-28.20000
50.278125,0.3050000,0.2440000,0.0000000,-0.0010000,0.0120000,0.9960000,8.10000,0.30000,-28.30000
50.327623,0.4270000,0.3050000,0.0000000,-0.0000000,0.0120000,0.9950000,8.20000,0.20000,-28.30000
50.390530,0.4270000,0.6100000,0.0000000,-0.0020000,0.0120000,0.9950000,8.20000,0.20000,-28.50000
50.444323,0.4270000,0.1830000,0.0000000,-0.0010000,0.0140000,0.9960000,8.30000,0.40000,-28.40000
50.488763,0.2440000,0.6710000,0.0610000,-0.0020000,0.0130000,0.9950000,8.10000,0.30000,-28.30000
50.529343,0.4880000,0.7320000,0.0000000,-0.0030000,0.0120000,0.9950000,8.00000,0.50000,-28.20000
50.579497,0.6710000,1.0380000,0.0000000,-0.0010000,0.0130000,0.9970000,8.20000,0.40000,-28.20000
50.628904,0.8540000,2.8080000,-0.1220000,-0.0060000,0.0150000,0.9970000,8.40000,0.40000,-28.20000
50.678342,0.5490000,5.1270000,-0.2440000,-0.0020000,0.0140000,1.0010000,8.30000,0.30000,-28.30000
50.727131,0.1830000,7.1410000,-0.3660000,-0.0140000,0.0170000,0.9930000,8.40000,0.30000,-28.30000
50.777077,-0.0000000,9.6440000,-0.0610000,-0.0180000,0.0110000,0.9980000,8.50000,0.20000,-28.20000
50.826880,0.0610000,6.4090000,0.0610000,-0.0260000,0.0140000,0.9950000,8.70000,0.30000,-28.20000
50.878306,-0.0610000,9.5210000,-1.2820000,-0.0300000,0.0190000,1.0010000,8.90000,0.20000,-28.30000
50.938361,0.2440000,12.3290000,-1.8310000,-0.0410000,0.0120000,0.9930000,9.10000,0.20000,-27.90000
50.976584,0.1220000,11.5360000,-2.9300000,-0.0490000,0.0130000,0.9970000,9.30000,0.30000,-28.00000
51.026353,0.7930000,13.0620000,-3.9670000,-0.0590000,0.0150000,0.9950000,9.60000,0.30000,-28.00000
51.077852,0.1220000,8.5450000,-1.5260000,-0.0790000,0.0150000,0.9900000,9.80000,0.40000,-27.90000
51.126315,0.6710000,6.7140000,0.0000000,-0.0820000,0.0170000,0.9940000,10.10000,0.30000,-27.70000
51.179355,0.2440000,7.4460000,0.1220000,-0.0800000,0.0180000,1.0020000,10.10000,0.30000,-27.70000
51.231650,0.7930000,12.4510000,0.0610000,-0.0930000,0.0190000,0.9940000,10.50000,0.30000,-27.60000
51.282361,0.6710000,13.8550000,-0.0610000,-0.1170000,0.0130000,0.9790000,10.90000,0.20000,-27.50000
51.325855,1.2210000,12.7560000,-0.5490000,-0.1330000,0.0160000,0.9740000,11.30000,0.30000,-27.20000
51.375735,1.9530000,11.1690000,0.6710000,-0.1270000,0.0190000,0.9970000,11.60000,0.20000,-27.20000
51.425522,1.8310000,12.6950000,0.0000000,-0.1400000,0.0170000,0.9850000,11.80000,0.20000,-27.00000
51.475557,0.7930000,14.8320000,1.2210000,-0.1570000,0.0250000,0.9900000,12.10000,0.20000,-26.90000
51.526210,2.1360000,14.2210000,0.9770000,-0.1750000,0.0190000,0.9720000,12.20000,0.10000,-26.80000
51.575497,1.2210000,11.5970000,0.3050000,-0.1790000,0.0310000,0.9800000,12.60000,0.10000,-26.60000
51.626280,0.6710000,15.3810000,0.3050000,-0.1800000,0.0300000,0.9920000,12.80000,0.10000,-26.40000
51.674810,0.6710000,14.8930000,0.3660000,-0.2090000,0.0270000,0.9770000,13.10000,0.00000,-26.20000
51.725389,0.4880000,15.2590000,0.8540000,-0.2170000,0.0240000,0.9750000,13.60000,0.10000,-26.10000
51.775528,-1.3430000,16.1130000,-0.1220000,-0.2290000,0.0360000,0.9740000,14.00000,0.10000,-25.90000
51.825066,-0.8540000,15.5030000,-0.4270000,-0.2400000,0.0210000,0.9670000,14.30000,0.10000,-25.80000
51.874847,-0.4270000,10.8030000,-0.1220000,-0.2560000,0.0270000,0.9690000,14.60000,0.10000,-25.60000
51.924774,0.7320000,12.6340000,0.3050000,-0.2670000,0.0190000,0.9590000,14.90000,0.10000,-25.50000
51.974469,0.8540000,11.9630000,-0.7320000,-0.2780000,0.0310000,0.9580000,15.20000,0.10000,-25.30000
52.024514,0.1830000,10.5590000,0.6100000,-0.2820000,0.0220000,0.9580000,15.40000,0.10000,-25.10000
52.074598,0.3660000,12.9390000,-1.7700000,-0.3010000,0.0320000,0.9480000,15.70000,0.00000,-24.70000
52.124432,1.2210000,7.5070000,-1.0990000,-0.3060000,0.0200000,0.9510000,15.90000,0.00000,-24.80000
52.174036,1.1600000,6.6530000,0.5490000,-0.3100000,0.0330000,0.9470000,16.00000,0.20000,-24.50000
52.234077,1.1600000,8.3010000,-0.9160000,-0.3170000,0.0270000,0.9440000,16.10000,0.10000,-24.40000
52.273641,0.4270000,8.3010000,0.5490000,-0.3330000,0.0280000,0.9380000,16.30000,0.00000,-24.20000
52.324632,0.7320000,10.1930000,-0.1830000,-0.3370000,0.0260000,0.9330000,16.60000,0.00000,-24.30000
52.377932,0.0610000,7.5070000,1.2820000,-0.3390000,0.0290000,0.9360000,16.80000,0.00000,-24.00000
52.423893,-0.5490000,6.4700000,-0.0610000,-0.3450000,0.0330000,0.9320000,16.90000,0.00000,-23.90000
52.473586,0.7930000,7.5680000,0.7320000,-0.3530000,0.0390000,0.9350000,17.20000,0.00000,-23.70000
52.525249,-1.5870000,6.2260000,-0.9160000,-0.3570000,0.0250000,0.9310000,17.50000,0.10000,-23.70000
52.573676,0.1220000,6.4090000,0.0000000,-0.3640000,0.0270000,0.9260000,17.50000,0.00000,-23.60000
52.624854,-0.9770000,6.4700000,-0.1830000,-0.3650000,0.0270000,0.9290000,17.50000,0.00000,-23.50000
52.686533,-0.6100000,13.3060000,-2.5020000,-0.3810000,0.0350000,0.9290000,17.70000,0.00000,-23.20000
52.736596,-0.7930000,9.3380000,-0.2440000,-0.3900000,0.0270000,0.9150000,17.80000,0.00000,-23.10000
52.773003,0.6710000,7.3240000,-0.5490000,-0.3930000,0.0300000,0.9130000,18.20000,0.10000,-22.90000
52.832423,0.6100000,3.3570000,-0.1830000,-0.3980000,0.0250000,0.9150000,18.30000,0.00000,-22.90000
52.872872,0.0610000,2.3190000,0.7320000,-0.3990000,0.0320000,0.9150000,18.30000,0.00000,-22.70000
52.922880,1.8920000,7.0800000,1.7090000,-0.4030000,0.0300000,0.9190000,18.40000,0.00000,-22.80000
52.977195,0.0610000,4.2110000,1.8310000,-0.4110000,0.0330000,0.9040000,18.40000,0.00000,-22.60000
53.023144,-0.3050000,4.8220000,-0.0610000,-0.4100000,0.0310000,0.9110000,18.60000,0.00000,-22.60000
53.072386,-0.1220000,4.9440000,2.9300000,-0.4170000,0.0320000,0.9040000,18.60000,0.00000,-22.40000
53.126669,-0.8540000,2.8080000,0.0000000,-0.4180000,0.0350000,0.9060000,18.80000,0.00000,-22.40000
53.172350,-0.7320000,2.0140000,0.0610000,-0.4230000,0.0300000,0.9020000,18.80000,-0.10000,-22.30000
53.223296,0.7930000,0.3050000,0.0000000,-0.4190000,0.0290000,0.9100000,18.80000,0.00000,-22.40000
53.272521,0.4880000,-0.4270000,0.4270000,-0.4250000,0.0300000,0.8980000,18.80000,0.00000,-22.40000
53.321802,-0.3660000,1.4040000,0.0000000,-0.4220000,0.0330000,0.9080000,18.90000,0.00000,-22.30000
53.376317,-0.3050000,-0.6710000,-0.2440000,-0.4230000,0.0260000,0.9030000,18.90000,0.00000,-22.40000
53.421593,-0.1220000,-1.3430000,0.3660000,-0.4230000,0.0310000,0.9060000,18.90000,0.00000,-22.60000
53.471606,-0.0610000,-0.0000000,-0.4880000,-0.4190000,0.0360000,0.9120000,18.90000,0.00000,-22.50000
53.534838,0.1830000,-0.8540000,0.4880000,-0.4260000,0.0280000,0.8990000,18.90000,0.00000,-22.50000
53.572109,0.8540000,-0.4880000,0.0610000,-0.4220000,0.0250000,0.9000000,18.80000,0.00000,-22.30000
53.621930,0.4880000,2.0750000,-0.0610000,-0.4240000,0.0310000,0.8990000,18.80000,0.00000,-22.30000
53.691020,-0.7930000,0.0610000,-0.7320000,-0.4250000,0.0280000,0.9010000,18.80000,0.00000,-22.40000
53.721644,0.6100000,1.5260000,0.5490000,-0.4200000,0.0340000,0.9090000,18.80000,0.00000,-22.30000
53.771315,-1.0990000,0.1220000,-0.2440000,-0.4230000,0.0300000,0.9040000,18.90000,0.00000,-22.40000
53.820966,0.4270000,-0.0610000,-0.7320000,-0.4200000,0.0260000,0.9090000,18.90000,-0.10000,-22.40000
53.870922,-1.0990000,0.6100000,-0.2440000,-0.4190000,0.0280000,0.9100000,18.90000,0.00000,-22.40000
53.921173,-0.5490000,-0.0000000,-0.5490000,-0.4250000,0.0310000,0.9010000,18.90000,0.00000,-22.30000
53.970696,0.1220000,-0.6710000,0.3050000,-0.4270000,0.0300000,0.8980000,18.90000,0.00000,-22.40000
54.020553,0.6100000,-1.2820000,-0.1830000,-0.4200000,0.0270000,0.9070000,19.00000,0.00000,-22.30000
54.070509,0.9160000,0.8540000,-0.1220000,-0.4250000,0.0340000,0.9010000,18.90000,0.00000,-22.40000
54.121155,0.7320000,0.9770000,1.0380000,-0.4240000,0.0320000,0.9040000,19.10000,0.00000,-22.30000
54.170273,-0.1220000,0.3050000,0.5490000,-0.4210000,0.0350000,0.9070000,19.00000,0.00000,-22.20000
54.220047,-0.4880000,0.3050000,-0.1830000,-0.4230000,0.0300000,0.9050000,19.00000,0.10000,-22.20000
54.270430,1.4650000,0.9770000,0.1220000,-0.4280000,0.0260000,0.8910000,18.90000,0.00000,-22.30000
54.319868,-0.1220000,-0.4270000,0.0000000,-0.4230000,0.0290000,0.9080000,18.80000,0.10000,-22.40000
54.377105,0.6710000,-0.3660000,0.4880000,-0.4190000,0.0350000,0.9070000,18.80000,0.00000,-22.50000
54.419972,0.3050000,-0.4270000,0.1830000,-0.4240000,0.0320000,0.9010000,18.90000,0.00000,-22.30000
54.473258,0.1830000,-0.0610000,0.3050000,-0.4250000,0.0300000,0.8980000,19.00000,0.00000,-22.30000
54.519744,-0.0610000,-0.6100000,-0.1830000,-0.4260000,0.0290000,0.9000000,18.80000,0.00000,-22.20000
54.569783,0.4880000,-1.1600000,0.1830000,-0.4230000,0.0280000,0.9070000,18.70000,0.00000,-22.40000
54.634983,0.2440000,0.7320000,-0.3660000,-0.4230000,0.0300000,0.9010000,19.00000,0.00000,-22.40000
54.669651,0.2440000,-0.3050000,-0.3660000,-0.4250000,0.0340000,0.8990000,19.00000,0.00000,-22.50000
54.719459,0.9160000,1.6480000,0.0000000,-0.4240000,0.0370000,0.9050000,18.90000,0.00000,-22.40000
54.769309,0.3660000,0.9160000,-0.2440000,-0.4290000,0.0310000,0.8980000,18.90000,0.00000,-22.30000
54.818953,-0.0000000,0.6100000,-0.3660000,-0.4260000,0.0350000,0.9010000,19.00000,0.00000,-22.30000
54.869055,0.5490000,0.1220000,-0.3050000,-0.4270000,0.0310000,0.9010000,19.00000,0.00000,-22.30000
54.919277,-0.1220000,1.5260000,0.0000000,-0.4290000,0.0340000,0.9000000,19.00000,0.10000,-22.10000
54.968800,-0.0000000,0.6100000,0.2440000,-0.4290000,0.0330000,0.9010000,18.90000,0.00000,-22.10000
55.020215,-0.2440000,0.3660000,0.1830000,-0.4280000,0.0360000,0.9020000,19.00000,0.00000,-22.10000
55.071153,0.4270000,0.4270000,0.0000000,-0.4290000,0.0330000,0.8990000,19.10000,0.00000,-22.30000
55.127078,0.3660000,-0.4270000,0.1220000,-0.4270000,0.0360000,0.9040000,19.00000,-0.10000,-22.20000
55.178931,-0.0000000,0.6100000,0.0000000,-0.4290000,0.0360000,0.9030000,18.90000,0.00000,-22.20000
55.218342,-0.0000000,0.6710000,0.0000000,-0.4310000,0.0340000,0.9000000,18.90000,-0.20000,-22.00000
55.268040,0.6710000,-0.4880000,0.0000000,-0.4280000,0.0370000,0.9050000,18.90000,-0.10000,-22.20000
55.320279,0.7320000,-0.0000000,0.0000000,-0.4290000,0.0310000,0.8990000,19.20000,-0.10000,-22.10000
55.367993,-0.0000000,-0.3050000,0.1830000,-0.4300000,0.0350000,0.9010000,19.10000,0.00000,-22.20000
55.417954,0.2440000,0.4880000,-0.1220000,-0.4290000,0.0350000,0.9030000,19.10000,0.00000,-22.30000
55.467728,-0.0000000,-0.3050000,-0.1830000,-0.4290000,0.0360000,0.9020000,19.00000,0.00000,-22.20000
55.518666,0.2440000,-0.0610000,0.1220000,-0.4280000,0.0370000,0.9050000,19.10000,0.00000,-22.40000
55.578634,-0.0610000,-0.1830000,-0.1220000,-0.4300000,0.0380000,0.8960000,19.10000,0.00000,-22.20000
55.617644,0.4270000,-0.6710000,0.4270000,-0.4270000,0.0390000,0.9060000,19.10000,0.00000,-22.30000
55.667566,-0.2440000,0.3660000,0.0610000,-0.4310000,0.0370000,0.9010000,19.20000,0.00000,-22.30000
55.717577,-0.4880000,-0.4880000,-0.1220000,-0.4290000,0.0380000,0.8990000,19.10000,0.00000,-22.30000
55.767196,-1.2820000,1.0380000,0.0000000,-0.4280000,0.0380000,0.9060000,19.00000,-0.10000,-22.20000
55.930812,-0.4270000,-0.8540000,-0.1830000,-0.4310000,0.0410000,0.8970000,19.20000,-0.10000,-22.30000
55.931064,0.6710000,-0.4270000,-0.3660000,-0.4280000,0.0360000,0.9060000,19.10000,-0.10000,-22.10000
55.931169,0.1220000,0.7930000,0.1830000,-0.4290000,0.0350000,0.9010000,18.80000,0.00000,-22.10000
55.967022,0.3660000,-0.6710000,0.0610000,-0.4290000,0.0370000,0.9050000,19.00000,-0.10000,-22.10000
56.016937,-0.4270000,1.2210000,0.3660000,-0.4300000,0.0350000,0.9010000,19.10000,0.00000,-22.20000
56.066576,0.0610000,0.1830000,0.6100000,-0.4320000,0.0380000,0.8980000,19.30000,0.00000,-22.20000
56.117014,0.3660000,0.1830000,-0.1830000,-0.4320000,0.0390000,0.9000000,19.10000,-0.10000,-22.20000
56.176963,-0.0000000,0.3050000,0.0610000,-0.4280000,0.0370000,0.9050000,19.10000,-0.10000,-22.20000
56.216152,-0.1220000,-0.0000000,0.0000000,-0.4320000,0.0390000,0.8990000,19.10000,-0.10000,-22.20000
56.270629,0.3660000,-0.6100000,-0.4270000,-0.4290000,0.0380000,0.9040000,19.20000,0.00000,-22.20000
56.322226,0.3050000,-0.1220000,0.4880000,-0.4310000,0.0390000,0.9010000,19.10000,0.00000,-22.30000
56.366313,-0.1220000,0.4880000,0.1220000,-0.4310000,0.0380000,0.8980000,19.10000,0.00000,-22.20000
56.429148,0.0610000,0.0610000,0.0000000,-0.4300000,0.0370000,0.9000000,18.90000,0.00000,-22.40000
56.475144,-0.1220000,1.4650000,0.0000000,-0.4310000,0.0420000,0.9040000,18.90000,0.00000,-22.30000
56.516314,0.5490000,0.0610000,0.0610000,-0.4320000,0.0370000,0.8990000,19.10000,0.00000,-22.20000
56.571965,-0.4880000,0.3050000,-0.1830000,-0.4280000,0.0360000,0.9030000,19.00000,-0.10000,-22.20000
56.618996,0.1830000,0.1830000,0.1830000,-0.4330000,0.0400000,0.8970000,19.10000,-0.10000,-22.20000
56.665730,0.8540000,-0.0610000,0.1220000,-0.4310000,0.0380000,0.9020000,19.10000,-0.10000,-22.10000
56.724392,-0.1220000,1.7700000,0.3660000,-0.4340000,0.0420000,0.9000000,19.10000,-0.10000,-22.20000
56.775030,0.7930000,1.3430000,0.1830000,-0.4340000,0.0400000,0.8990000,19.40000,-0.20000,-22.30000
56.814894,-0.0000000,1.6480000,0.0000000,-0.4330000,0.0380000,0.8990000,19.10000,-0.10000,-22.30000
56.865151,0.7930000,1.9530000,0.1220000,-0.4370000,0.0370000,0.8960000,19.10000,0.00000,-22.30000
56.916192,-0.0000000,0.3050000,-0.3050000,-0.4340000,0.0410000,0.9010000,19.20000,-0.10000,-22.10000
56.964874,-0.2440000,0.4880000,-0.2440000,-0.4390000,0.0430000,0.8960000,19.40000,-0.10000,-22.10000
57.016958,0.1830000,-1.4040000,0.0000000,-0.4380000,0.0390000,0.8960000,19.30000,-0.10000,-22.20000
57.086071,-0.4880000,-0.3660000,-0.1830000,-0.4350000,0.0380000,0.9060000,19.20000,0.00000,-22.10000
57.114783,-0.1830000,0.3050000,0.7320000,-0.4380000,0.0410000,0.8960000,19.10000,0.00000,-22.10000
57.164518,-0.0610000,0.3660000,0.5490000,-0.4380000,0.0420000,0.8980000,19.30000,0.00000,-22.00000
57.216375,0.8540000,0.1830000,0.2440000,-0.4380000,0.0410000,0.8970000,19.20000,0.00000,-22.10000
57.264400,-0.3050000,0.7320000,1.0380000,-0.4370000,0.0390000,0.9010000,19.20000,0.00000,-21.90000
57.314255,-0.7930000,0.2440000,0.1830000,-0.4400000,0.0410000,0.8940000,19.20000,0.00000,-22.00000
57.364396,0.6100000,-0.3660000,0.4880000,-0.4360000,0.0350000,0.8980000,19.30000,-0.20000,-21.90000
57.413826,0.3660000,-2.0750000,0.6100000,-0.4390000,0.0420000,0.8910000,19.30000,-0.20000,-22.00000
57.464308,-0.1830000,-1.9530000,0.1830000,-0.4340000,0.0430000,0.9030000,19.30000,-0.30000,-21.90000
57.513838,-0.3660000,-1.5870000,0.1220000,-0.4360000,0.0450000,0.8970000,19.20000,-0.20000,-22.00000
57.563861,-0.3660000,-5.6150000,0.7320000,-0.4320000,0.0430000,0.8990000,19.20000,0.00000,-22.20000
57.613585,-0.1830000,-3.4180000,0.4270000,-0.4280000,0.0430000,0.9020000,19.10000,-0.10000,-22.10000
57.664603,0.1830000,-3.9670000,0.4270000,-0.4230000,0.0420000,0.9070000,19.10000,0.00000,-22.20000
57.713654,0.7320000,-3.4180000,0.6100000,-0.4260000,0.0420000,0.9000000,19.00000,-0.10000,-22.30000
57.763541,-0.0000000,-6.7140000,0.1830000,-0.4130000,0.0450000,0.9150000,19.00000,-0.10000,-22.50000
57.814403,-1.3430000,-7.5680000,1.0380000,-0.4110000,0.0390000,0.9080000,18.80000,0.00000,-22.60000
57.863215,0.6100000,-5.9200000,0.8540000,-0.4090000,0.0420000,0.9060000,18.70000,0.00000,-22.70000
57.912971,-0.1220000,-7.0190000,0.4270000,-0.4060000,0.0460000,0.9080000,18.50000,-0.10000,-22.70000
57.962869,-0.0000000,-10.8640000,-0.1220000,-0.3970000,0.0460000,0.9160000,18.30000,-0.10000,-22.70000
58.012800,-0.1830000,-14.0990000,1.7090000,-0.3850000,0.0400000,0.9170000,17.90000,-0.20000,-22.90000
58.063218,1.7090000,-14.3430000,1.9530000,-0.3740000,0.0360000,0.9210000,17.90000,-0.10000,-23.20000
58.112747,-1.4040000,-11.2300000,0.5490000,-0.3630000,0.0490000,0.9340000,17.50000,-0.40000,-23.60000
58.162674,1.2820000,-16.0520000,0.6710000,-0.3570000,0.0380000,0.9310000,17.10000,-0.30000,-23.60000
58.212379,0.2440000,-13.1840000,0.6100000,-0.3260000,0.0460000,0.9500000,17.00000,-0.30000,-23.80000
58.262559,0.6100000,-10.8640000,-0.1220000,-0.3130000,0.0530000,0.9590000,16.70000,-0.20000,-24.10000
58.312213,-0.0000000,-12.3290000,-0.1220000,-0.3180000,0.0400000,0.9430000,16.30000,-0.20000,-24.30000
58.362969,1.5260000,-16.6020000,0.8540000,-0.3040000,0.0470000,0.9510000,16.10000,-0.20000,-24.50000
58.412207,-1.2210000,-9.0940000,-0.1220000,-0.2920000,0.0430000,0.9490000,15.70000,-0.20000,-24.60000
58.464365,-0.3660000,-16.1130000,1.2210000,-0.2840000,0.0410000,0.9500000,15.60000,-0.10000,-25.00000
58.511719,0.9770000,-11.5970000,0.2440000,-0.2620000,0.0470000,0.9770000,15.20000,-0.10000,-25.00000
58.562693,-0.7930000,-8.5450000,-0.3050000,-0.2640000,0.0430000,0.9670000,15.10000,-0.10000,-25.20000
58.613852,-0.1220000,-17.6390000,1.4650000,-0.2500000,0.0430000,0.9610000,15.00000,-0.10000,-25.40000
58.661776,-0.3660000,-17.4560000,1.7090000,-0.2260000,0.0450000,0.9880000,14.50000,-0.10000,-25.80000
58.745093,-1.2820000,-15.5640000,1.1600000,-0.2240000,0.0540000,0.9770000,14.00000,-0.30000,-25.80000
58.767567,-1.3430000,-14.7090000,0.1220000,-0.2160000,0.0470000,0.9700000,13.70000,-0.20000,-25.90000
58.811218,-1.0380000,-11.1690000,-0.2440000,-0.1920000,0.0400000,0.9740000,13.20000,-0.20000,-26.10000
58.861132,-0.7320000,-12.0850000,1.0380000,-0.1930000,0.0340000,0.9660000,12.90000,-0.20000,-26.40000
58.911124,-1.0380000,-22.2170000,1.9530000,-0.1740000,0.0360000,0.9790000,12.60000,-0.30000,-26.40000
58.962236,-1.4040000,-25.7570000,2.1360000,-0.1510000,0.0380000,0.9870000,12.30000,-0.20000,-26.80000
59.010915,-0.1220000,-13.4280000,0.8540000,-0.1350000,0.0390000,0.9780000,11.90000,-0.10000,-27.00000
59.064107,-1.9530000,-22.6440000,0.4880000,-0.1160000,0.0310000,0.9900000,11.50000,-0.10000,-27.20000
59.110694,-2.8690000,-27.0390000,0.3660000,-0.0970000,0.0330000,0.9910000,11.00000,-0.10000,-27.40000
59.162072,-5.4930000,-28.8700000,4.4560000,-0.0940000,0.0210000,0.9670000,10.30000,-0.10000,-27.60000
59.219752,-4.5780000,-27.5880000,2.8690000,-0.0270000,0.0250000,1.0000000,9.60000,0.00000,-27.90000
59.260469,-2.6860000,-17.8830000,0.7930000,0.0100000,0.0170000,1.0270000,8.80000,0.00000,-28.10000
59.310501,-0.6710000,-3.2960000,0.1830000,-0.0090000,0.0200000,0.9920000,8.60000,0.10000,-28.30000
59.360631,-0.4880000,-1.6480000,-0.0610000,-0.0020000,0.0140000,0.9960000,8.30000,0.20000,-28.30000
59.410232,0.4880000,-0.3660000,-0.2440000,-0.0030000,0.0140000,0.9940000,8.20000,0.10000,-28.40000
59.459892,0.4270000,-0.3660000,0.0000000,-0.0020000,0.0150000,0.9960000,8.20000,0.20000,-28.40000
59.510118,0.3660000,-0.1220000,0.0000000,-0.0030000,0.0130000,0.9950000,8.00000,0.20000,-28.40000
59.560720,0.3050000,-0.3660000,-0.1830000,-0.0000000,0.0120000,0.9950000,8.20000,0.10000,-28.30000
59.609914,0.3050000,0.4270000,-0.3050000,-0.0190000,0.0340000,0.9830000,8.10000,0.10000,-28.40000
59.659529,0.3050000,-0.3660000,0.0000000,-0.0000000,0.0150000,0.9990000,8.00000,0.10000,-28.30000
59.709742,2.8690000,2.3190000,-0.3660000,0.0120000,0.0030000,1.0000000,8.00000,0.20000,-28.20000
59.759498,1.5260000,1.4040000,-0.1830000,-0.0050000,0.0210000,0.9970000,8.10000,0.10000,-28.30000
59.809436,0.4880000,0.5490000,-0.1220000,-0.0010000,0.0120000,0.9950000,8.10000,0.10000,-28.40000
59.859028,0.2440000,-0.1220000,0.0000000,-0.0010000,0.0100000,0.9980000,8.20000,0.20000,-28.30000
59.909823,0.0610000,1.4040000,-0.0610000,-0.0020000,0.0070000,0.9920000,8.00000,0.10000,-28.30000
59.958708,0.0610000,0.2440000,-0.1220000,-0.0000000,0.0120000,0.9950000,8.10000,0.20000,-28.40000
60.008992,-3.4790000,-1.8310000,0.0000000,-0.0010000,0.0170000,0.9970000,8.00000,0.10000,-28.30000
60.058767,0.1220000,-0.0000000,0.0000000,0.0000000,0.0120000,0.9950000,8.00000,0.10000,-28.30000
60.108912,0.1220000,0.0610000,0.0000000,0.0000000,0.0110000,0.9980000,8.10000,0.20000,-28.40000
60.158621,0.3050000,0.1220000,0.0000000,0.0010000,0.0110000,0.9960000,8.00000,0.20000,-28.20000
60.208918,0.1830000,0.1220000,-0.0610000,0.0000000,0.0120000,0.9960000,8.00000,0.20000,-28.30000
60.259284,0.2440000,0.1830000,0.0000000,0.0000000,0.0110000,0.9950000,8.00000,0.20000,-28.30000
60.309206,0.2440000,0.0610000,-0.0610000,0.0010000,0.0100000,0.9950000,8.00000,0.30000,-28.40000
60.358166,0.1830000,0.1220000,-0.0610000,0.0000000,0.0100000,0.9960000,8.10000,0.30000,-28.20000
60.422641,0.2440000,0.1830000,0.0000000,0.0020000,0.0120000,0.9950000,8.10000,0.10000,-28.30000
60.462863,0.1830000,0.1220000,0.0000000,0.0000000,0.0110000,0.9940000,8.10000,0.20000,-28.30000
60.512477,0.2440000,0.1220000,0.0000000,0.0000000,0.0120000,0.9950000,8.20000,0.10000,-28.40000
60.559018,0.3050000,0.1220000,0.0000000,-0.0000000,0.0130000,0.9960000,8.10000,0.10000,-28.40000
60.612130,0.1830000,0.0610000,0.0000000,0.0010000,0.0100000,0.9970000,8.00000,0.10000,-28.40000
