Time (s),Gyroscope X (deg/s),Gyroscope Y (deg/s),Gyroscope Z (deg/s),Accelerometer X (g),Accelerometer Y (g),Accelerometer Z (g),Magnetometer X (uT),Magnetometer Y (uT),Magnetometer Z (uT)
0.000000,-2.2580000,-2.6250000,0.6710000,0.0010000,-0.0110000,0.9970000,0.20000,4.40000,-10.40000
0.049271,-2.2580000,-2.5630000,0.6710000,0.0010000,-0.0120000,1.0000000,0.10000,4.40000,-10.40000
0.099013,-2.2580000,-2.6250000,0.6710000,-0.0000000,-0.0100000,0.9980000,0.10000,4.50000,-10.50000
0.149329,-2.1970000,-2.6860000,0.6710000,0.0010000,-0.0110000,0.9970000,0.10000,4.40000,-10.50000
0.198604,-2.1970000,-2.6250000,0.6710000,-0.0000000,-0.0100000,0.9990000,0.20000,4.40000,-10.60000
0.248964,-2.2580000,-2.5630000,0.6710000,-0.0000000,-0.0100000,0.9990000,0.30000,4.50000,-10.50000
0.298792,-2.1970000,-2.6250000,0.6100000,-0.0000000,-0.0100000,0.9980000,0.30000,4.50000,-10.50000
0.348154,-2.1970000,-2.6250000,0.6710000,-0.0000000,-0.0090000,0.9980000,0.20000,4.50000,-10.40000
0.398093,-2.2580000,-2.6250000,0.6100000,-0.0000000,-0.0100000,0.9970000,0.30000,4.40000,-10.60000
0.448528,-2.2580000,-2.6250000,0.6710000,0.0000000,-0.0110000,0.9960000,0.10000,4.50000,-10.30000
0.497549,-2.2580000,-2.6250000,0.6710000,-0.0000000,-0.0100000,0.9980000,0.20000,4.40000,-10.50000
0.550709,-2.2580000,-2.6250000,0.6710000,-0.0000000,-0.0100000,0.9980000,0.20000,4.50000,-10.40000
0.598297,-2.2580000,-2.6250000,0.6100000,-0.0000000,-0.0090000,0.9980000,0.20000,4.50000,-10.40000
0.647660,-2.2580000,-2.6250000,0.6710000,-0.0000000,-0.0110000,0.9980000,0.00000,4.50000,-10.40000
0.697579,-2.2580000,-2.6250000,0.6710000,0.0000000,-0.0100000,0.9980000,0.10000,4.50000,-10.60000
0.747843,-2.3190000,-2.5630000,0.5490000,0.0000000,-0.0100000,0.9970000,0.10000,4.40000,-10.40000
0.796947,-2.2580000,-2.5630000,0.6100000,-0.0000000,-0.0110000,0.9990000,0.10000,4.40000,-10.50000
0.847198,-2.2580000,-2.6250000,0.6100000,-0.0010000,-0.0110000,0.9980000,0.10000,4.30000,-10.50000
0.896847,-2.2580000,-2.6250000,0.6710000,-0.0000000,-0.0100000,1.0000000,0.20000,4.40000,-10.50000
0.967717,-0.0000000,-0.0000000,0.0000000,0.0010000,-0.0100000,0.9970000,0.10000,4.40000,-10.60000
1.017343,-0.0000000,-0.0000000,0.0000000,-0.0000000,-0.0100000,0.9970000,0.10000,4.40000,-10.50000
1.067280,-0.0000000,-0.0000000,0.0000000,0.0000000,-0.0110000,0.9980000,0.10000,4.40000,-10.50000
1.117154,-0.0000000,-0.0000000,0.0000000,0.0000000,-0.0100000,0.9990000,0.10000,4.50000,-10.60000
1.166806,-0.0000000,-0.0000000,0.0000000,-0.0000000,-0.0110000,0.9980000,0.20000,4.50000,-10.50000
1.216624,-0.0000000,-0.0000000,0.0000000,-0.0000000,-0.0100000,0.9960000,0.10000,4.50000,-10.50000
1.267434,-0.0000000,-0.0000000,0.0000000,-0.0000000,-0.0100000,0.9990000,0.10000,4.50000,-10.50000
1.316549,-0.0000000,-0.0000000,0.0000000,-0.0010000,-0.0100000,0.9970000,0.10000,4.50000,-10.50000
1.368498,-0.0000000,-0.0000000,0.0000000,0.0000000,-0.0100000,0.9970000,0.10000,4.40000,-10.30000
1.415849,-0.0000000,-0.0000000,0.0000000,-0.0000000,-0.0110000,0.9980000,0.10000,4.50000,-10.30000
1.466237,-0.0000000,-0.0000000,0.0000000,-0.0000000,-0.0110000,0.9980000,0.20000,4.30000,-10.40000
1.515986,-0.0000000,-0.0000000,0.0000000,0.0000000,-0.0110000,0.9970000,0.30000,4.40000,-10.60000
1.565967,-0.0000000,-0.0000000,0.0000000,-0.0000000,-0.0100000,0.9970000,0.30000,4.40000,-10.40000
1.615576,-0.0000000,-0.0000000,0.0000000,-0.0010000,-0.0110000,0.9980000,0.20000,4.40000,-10.50000
1.665901,-0.0000000,-0.0000000,0.0000000,-0.0010000,-0.0100000,0.9970000,0.20000,4.30000,-10.50000
1.715290,-0.0000000,-0.0000000,0.0000000,0.0000000,-0.0110000,0.9980000,0.10000,4.40000,-10.60000
1.769757,-0.0000000,-0.0000000,0.0000000,0.0000000,-0.0110000,0.9980000,0.30000,4.40000,-10.70000
1.815500,-0.0000000,-0.0000000,0.0000000,-0.0010000,-0.0120000,0.9970000,0.30000,4.50000,-10.60000
1.869407,-0.0000000,-0.0000000,0.0000000,-0.0000000,-0.0110000,0.9990000,0.30000,4.50000,-10.60000
1.914988,-0.0000000,-0.0000000,0.0000000,-0.0000000,-0.0110000,0.9960000,0.20000,4.50000,-10.50000
1.969598,-0.0000000,-0.0000000,0.0000000,0.0000000,-0.0110000,0.9970000,0.20000,4.40000,-10.60000
2.015448,-0.0000000,-0.0000000,0.0000000,-0.0000000,-0.0110000,0.9980000,0.00000,4.30000,-10.60000
2.064660,-0.0000000,-0.0000000,0.0000000,0.0000000,-0.0110000,0.9980000,0.00000,4.30000,-10.60000
2.114979,-0.0000000,-0.0000000,0.0000000,0.0000000,-0.0120000,0.9990000,0.10000,4.30000,-10.60000
2.165205,-0.0000000,-0.0000000,0.0000000,-0.0000000,-0.0110000,0.9990000,0.10000,4.30000,-10.50000
2.214393,-0.0000000,-0.0000000,0.0000000,-0.0000000,-0.0110000,0.9990000,0.20000,4.30000,-10.50000
2.263717,-0.0000000,-0.0000000,0.0000000,-0.0000000,-0.0110000,0.9970000,0.20000,4.30000,-10.70000
2.313813,-0.0000000,-0.0000000,0.0000000,0.0010000,-0.0110000,0.9990000,0.20000,4.40000,-10.60000
2.363889,-0.0000000,-0.0000000,0.0000000,0.0010000,-0.0110000,0.9980000,0.20000,4.50000,-10.60000
2.413606,-0.0000000,-0.0000000,0.0000000,-0.0010000,-0.0110000,0.9960000,0.20000,4.40000,-10.60000
2.463178,-0.0000000,-0.0000000,0.0000000,-0.0000000,-0.0100000,0.9970000,0.10000,4.40000,-10.60000
2.513619,-0.0000000,-0.0000000,0.0000000,0.0010000,-0.0110000,1.0050000,0.30000,4.50000,-10.50000
2.563199,-0.0000000,-0.0000000,0.0000000,0.0000000,-0.0110000,1.0000000,0.20000,4.40000,-10.50000
2.612999,-0.0000000,-0.0000000,0.0000000,-0.0000000,-0.0100000,0.9990000,0.10000,4.40000,-10.40000
2.662540,-0.0000000,-0.0000000,0.0000000,-0.0000000,-0.0100000,0.9980000,0.10000,4.50000,-10.60000
2.713008,-0.0000000,-0.0000000,0.0000000,0.0000000,-0.0100000,0.9980000,0.10000,4.50000,-10.50000
2.762715,-0.0000000,-0.0000000,0.0000000,-0.0010000,-0.0110000,1.0000000,0.20000,4.50000,-10.50000
2.812849,-0.0000000,-0.0000000,0.0000000,0.0010000,-0.0120000,0.9990000,0.30000,4.40000,-10.50000
2.862677,-0.0000000,-0.0000000,0.0000000,-0.0000000,-0.0100000,0.9960000,0.10000,4.40000,-10.50000
2.913486,-0.0000000,-0.0000000,0.0000000,-0.0000000,-0.0110000,0.9970000,0.10000,4.40000,-10.60000
2.962276,-0.0000000,-0.0000000,0.0000000,-0.0010000,-0.0100000,0.9970000,0.10000,4.30000,-10.60000
3.012427,-0.0000000,-0.0000000,0.0000000,0.0010000,-0.0110000,0.9970000,0.10000,4.40000,-10.60000
3.064403,-0.0000000,-0.0000000,0.0000000,0.0010000,-0.0100000,0.9980000,0.10000,4.40000,-10.50000
3.111972,-0.0000000,-0.0000000,0.0000000,-0.0010000,-0.0110000,0.9980000,0.20000,4.50000,-10.40000
3.161733,-0.0000000,-0.0000000,0.0000000,0.0020000,-0.0110000,0.9980000,0.10000,4.40000,-10.50000
3.211979,-0.0000000,-0.0000000,0.0000000,0.0000000,-0.0110000,0.9990000,0.20000,4.60000,-10.50000
3.261252,-0.0000000,-0.0000000,0.0000000,-0.0010000,-0.0120000,0.9970000,0.20000,4.40000,-10.60000
3.310635,-0.0000000,-0.0000000,0.0000000,-0.0000000,-0.0110000,0.9980000,0.00000,4.40000,-10.50000
3.361196,-0.0000000,-0.0000000,0.0000000,-0.0000000,-0.0100000,0.9970000,0.00000,4.40000,-10.50000
3.411121,-0.0000000,-0.0000000,0.0000000,-0.0000000,-0.0110000,0.9980000,0.00000,4.40000,-10.50000
3.463776,-0.0000000,-0.0000000,0.0000000,0.0010000,-0.0110000,0.9950000,0.10000,4.40000,-10.50000
3.510703,-0.0000000,-0.0000000,0.0000000,-0.0000000,-0.0110000,0.9980000,0.10000,4.40000,-10.50000
3.560228,-0.0000000,-0.0000000,0.0000000,-0.0000000,-0.0110000,0.9970000,0.10000,4.40000,-10.50000
3.610437,-0.0000000,-0.0000000,0.0000000,0.0020000,-0.0120000,0.9980000,0.20000,4.50000,-10.60000
3.660641,-0.0000000,-0.0000000,0.0000000,-0.0000000,-0.0120000,0.9980000,0.20000,4.50000,-10.70000
3.717464,-0.0000000,-0.0000000,0.0000000,-0.0010000,-0.0110000,0.9980000,0.10000,4.50000,-10.60000
3.760121,-0.0000000,-0.0000000,0.0000000,0.0010000,-0.0120000,0.9970000,0.10000,4.50000,-10.50000
3.813661,-0.0000000,-0.0000000,0.0000000,-0.0000000,-0.0110000,0.9990000,0.10000,4.40000,-10.60000
3.859849,-0.0000000,-0.0000000,0.0000000,-0.0000000,-0.0120000,0.9970000,0.20000,4.40000,-10.60000
3.917451,-0.0000000,-0.0000000,0.0000000,-0.0000000,-0.0120000,0.9980000,0.20000,4.40000,-10.70000
3.959398,-0.0000000,-0.0000000,0.0000000,-0.0000000,-0.0120000,0.9990000,0.10000,4.40000,-10.60000
4.008940,-0.0000000,-0.0000000,0.0000000,-0.0000000,-0.0110000,0.9970000,0.00000,4.40000,-10.60000
4.059261,-0.0000000,-0.0000000,0.0000000,-0.0010000,-0.0110000,0.9950000,0.00000,4.40000,-10.60000
4.110119,-0.0000000,-0.0000000,0.0000000,-0.0020000,-0.0120000,0.9990000,0.00000,4.40000,-10.60000
4.159040,-0.0000000,-0.0000000,0.0000000,0.0010000,-0.0110000,0.9970000,0.10000,4.40000,-10.60000
4.208911,-0.0000000,-0.0000000,0.0000000,0.0000000,-0.0110000,0.9970000,0.20000,4.40000,-10.50000
4.258865,-0.0000000,-0.0000000,0.0000000,0.0000000,-0.0110000,0.9980000,0.20000,4.60000,-10.60000
4.308458,-0.0000000,-0.0000000,0.0000000,-0.0000000,-0.0100000,0.9980000,0.10000,4.40000,-10.50000
4.358671,-0.0000000,-0.0000000,0.0000000,-0.0000000,-0.0120000,0.9970000,0.20000,4.50000,-10.50000
4.408536,-0.0000000,-0.0000000,0.0000000,0.0000000,-0.0110000,0.9950000,0.20000,4.40000,-10.40000
4.458217,-0.0000000,-0.0000000,0.0000000,0.0000000,-0.0110000,0.9980000,0.00000,4.40000,-10.60000
4.509181,-0.0000000,-0.0000000,0.0000000,-0.0000000,-0.0110000,0.9980000,0.00000,4.50000,-10.50000
4.558060,-0.0000000,-0.0000000,0.0000000,0.0000000,-0.0100000,0.9980000,0.10000,4.50000,-10.50000
4.607189,-0.0000000,-0.0000000,0.0000000,-0.0000000,-0.0120000,0.9960000,0.00000,4.40000,-10.40000
4.659110,-0.0000000,-0.0000000,0.0000000,-0.0010000,-0.0090000,0.9980000,0.00000,4.30000,-10.50000
4.708129,-0.0000000,-0.0000000,0.0000000,-0.0000000,-0.0100000,0.9990000,0.10000,4.30000,-10.50000
4.757441,-0.0000000,-0.0000000,0.0000000,0.0000000,-0.0100000,0.9960000,0.10000,4.40000,-10.50000
4.807513,-0.0000000,-0.0000000,0.0000000,0.0000000,-0.0100000,0.9970000,0.20000,4.40000,-10.50000
4.857658,-0.0000000,-0.0000000,0.0000000,-0.0010000,-0.0100000,0.9990000,0.20000,4.40000,-10.50000
4.907200,-0.0000000,-0.0000000,0.0000000,0.0010000,-0.0100000,0.9970000,0.10000,4.50000,-10.50000
4.956837,-0.0000000,-0.0000000,0.0000000,-0.0000000,-0.0110000,0.9970000,0.10000,4.50000,-10.40000
5.007071,-0.0000000,-0.0000000,0.0000000,0.0000000,-0.0090000,0.9980000,0.20000,4.40000,-10.60000
5.056835,-0.0000000,-0.0000000,0.0000000,-0.0000000,-0.0100000,0.9990000,0.20000,4.50000,-10.40000
5.106640,-0.0000000,-0.0000000,0.0000000,0.0010000,-0.0100000,0.9960000,0.20000,4.50000,-10.50000
5.156640,-0.0000000,-0.0000000,0.0000000,0.0000000,-0.0120000,0.9980000,-0.10000,4.40000,-10.50000
5.205715,-0.0000000,-0.0000000,0.0000000,-0.0000000,-0.0100000,0.9950000,0.00000,4.40000,-10.40000
5.256193,-0.0000000,-0.0000000,0.0000000,0.0000000,-0.0110000,0.9970000,0.00000,4.30000,-10.40000
5.305910,-0.0000000,-0.0000000,0.0000000,-0.0000000,-0.0110000,0.9960000,0.10000,4.40000,-10.50000
5.355658,-0.0000000,-0.0000000,0.0000000,-0.0000000,-0.0120000,0.9970000,0.30000,4.40000,-10.40000
5.405781,-0.0000000,-0.0000000,0.0000000,0.0000000,-0.0120000,0.9960000,0.40000,4.40000,-10.40000
5.456907,-0.0000000,-0.0000000,0.0000000,-0.0000000,-0.0100000,0.9960000,0.20000,4.50000,-10.50000
5.505557,-0.0000000,-0.0000000,0.0000000,-0.0000000,-0.0120000,0.9960000,0.10000,4.50000,-10.40000
5.556424,-0.0000000,-0.0000000,0.0000000,-0.0000000,-0.0110000,0.9970000,0.00000,4.50000,-10.60000
5.605378,-0.3660000,-0.0000000,0.0000000,-0.0010000,-0.0090000,0.9960000,0.10000,4.40000,-10.60000
5.658343,-0.3660000,-0.1830000,0.0000000,-0.0000000,-0.0120000,0.9980000,0.10000,4.40000,-10.50000
5.704914,-0.0610000,-0.0610000,0.0000000,-0.0000000,-0.0110000,0.9960000,0.20000,4.40000,-10.60000
5.760510,-0.0000000,-0.0000000,-0.0610000,0.0010000,-0.0130000,0.9970000,0.20000,4.40000,-10.60000
5.804942,-0.0000000,-0.0000000,0.0000000,-0.0010000,-0.0110000,0.9980000,0.10000,4.40000,-10.60000
5.862994,-0.0610000,-0.0000000,0.0000000,-0.0010000,-0.0110000,0.9940000,0.00000,4.40000,-10.60000
5.904684,0.0610000,-0.0000000,0.0610000,0.0000000,-0.0110000,0.9970000,0.00000,4.30000,-10.70000
5.954653,-0.0000000,0.0610000,0.0000000,0.0010000,-0.0120000,0.9970000,0.10000,4.40000,-10.60000
6.004562,-0.3050000,-0.0000000,-10.8030000,-0.0030000,-0.0350000,0.9970000,0.10000,4.40000,-10.50000
6.054884,-0.3050000,-0.1830000,0.1220000,-0.0000000,-0.0110000,0.9970000,0.10000,4.40000,-10.60000
6.104511,-0.0610000,-0.0000000,0.1220000,0.0060000,-0.0120000,0.9950000,0.00000,4.40000,-10.60000
6.154884,-0.1220000,-0.0610000,0.0000000,0.0000000,-0.0120000,0.9970000,0.00000,4.40000,-10.50000
6.204116,-0.2440000,-0.0610000,0.0000000,0.0010000,-0.0130000,0.9970000,-0.10000,4.40000,-10.60000
6.253629,-0.0000000,-0.0610000,0.0000000,0.0010000,-0.0130000,0.9990000,0.00000,4.40000,-10.50000
6.303894,0.0610000,0.0610000,0.0000000,0.0010000,-0.0120000,0.9980000,0.00000,4.50000,-10.50000
6.353798,-0.0000000,-0.0000000,0.0000000,0.0010000,-0.0120000,0.9970000,0.10000,4.40000,-10.50000
6.404150,0.1220000,-0.0000000,0.0000000,0.0000000,-0.0120000,0.9980000,0.00000,4.50000,-10.50000
6.453552,-0.0610000,-0.0000000,0.0000000,0.0030000,-0.0130000,0.9980000,0.10000,4.50000,-10.40000
6.503106,-0.0000000,-0.0000000,0.0000000,-0.0000000,-0.0120000,0.9980000,0.10000,4.50000,-10.40000
6.552630,0.2440000,0.0610000,0.0000000,-0.0000000,-0.0110000,0.9980000,0.00000,4.40000,-10.50000
6.602701,-0.0000000,-0.0000000,0.0000000,0.0010000,-0.0130000,0.9980000,0.00000,4.30000,-10.30000
6.657155,0.1830000,-0.0000000,0.0000000,0.0010000,-0.0110000,1.0000000,0.00000,4.40000,-10.50000
6.702639,-0.0610000,-0.0000000,0.0000000,0.0020000,-0.0120000,0.9990000,0.00000,4.40000,-10.60000
6.752236,-0.0000000,-0.0000000,0.0000000,0.0010000,-0.0120000,0.9970000,0.10000,4.30000,-10.60000
6.805420,-0.0000000,-0.0000000,0.0000000,-0.0010000,-0.0120000,0.9980000,0.00000,4.40000,-10.60000
6.852292,-0.0000000,-0.0000000,0.0610000,0.0020000,-0.0120000,0.9960000,0.00000,4.50000,-10.60000
6.902768,0.0610000,-0.0000000,0.0000000,0.0010000,-0.0120000,0.9980000,0.10000,4.40000,-10.50000
6.951987,-0.0610000,-0.0000000,0.0000000,0.0000000,-0.0110000,0.9980000,0.10000,4.50000,-10.70000
7.003868,-0.1220000,-0.0610000,0.0000000,0.0010000,-0.0120000,0.9980000,0.00000,4.40000,-10.40000
7.051877,0.0610000,-0.0000000,0.0000000,-0.0000000,-0.0110000,0.9980000,0.00000,4.40000,-10.50000
7.103895,0.0610000,-0.0000000,0.0000000,0.0010000,-0.0120000,0.9980000,-0.10000,4.50000,-10.40000
7.151867,0.1220000,-0.0000000,0.0000000,0.0020000,-0.0120000,0.9950000,0.00000,4.50000,-10.60000
7.202641,0.0610000,-0.0610000,0.0000000,0.0010000,-0.0110000,0.9980000,0.00000,4.40000,-10.50000
7.251209,0.0610000,-0.0000000,0.0000000,0.0010000,-0.0110000,0.9960000,0.00000,4.40000,-10.40000
7.301240,0.0610000,-0.0000000,0.0000000,0.0010000,-0.0120000,0.9980000,0.10000,4.50000,-10.50000
7.350570,-0.0000000,-0.0000000,0.0000000,-0.0000000,-0.0110000,0.9990000,0.10000,4.40000,-10.60000
7.400921,-0.0000000,-0.0000000,0.0000000,-0.0000000,-0.0120000,0.9960000,0.00000,4.40000,-10.50000
7.450628,-0.0000000,-0.0000000,0.0000000,0.0000000,-0.0120000,0.9980000,0.00000,4.40000,-10.50000
7.504287,-0.0610000,-0.0000000,0.0000000,-0.0020000,-0.0100000,0.9980000,0.00000,4.50000,-10.60000
7.550497,-0.0000000,-0.0000000,0.0000000,0.0020000,-0.0120000,0.9960000,0.00000,4.40000,-10.60000
7.603816,0.0610000,-0.0000000,0.0000000,0.0020000,-0.0110000,0.9970000,0.00000,4.30000,-10.60000
7.649830,-0.0000000,-0.0000000,0.0000000,-0.0000000,-0.0110000,0.9980000,0.10000,4.40000,-10.60000
7.706908,-0.0000000,-0.0610000,0.0000000,0.0030000,-0.0130000,0.9980000,0.10000,4.40000,-10.60000
7.749964,-0.0000000,-0.0000000,0.0000000,0.0000000,-0.0110000,0.9970000,0.00000,4.30000,-10.50000
7.810397,-0.0000000,-0.0000000,0.0000000,-0.0010000,-0.0110000,0.9980000,0.00000,4.30000,-10.60000
7.849675,-0.0000000,-0.0000000,0.0000000,0.0030000,-0.0120000,0.9970000,0.00000,4.30000,-10.60000
7.910937,-0.0000000,-0.0000000,0.0000000,-0.0010000,-0.0120000,0.9980000,0.00000,4.40000,-10.60000
7.950036,-0.0000000,-0.0000000,0.0000000,-0.0000000,-0.0130000,0.9970000,0.10000,4.40000,-10.60000
8.001825,-0.0000000,-0.0000000,0.0000000,0.0040000,-0.0130000,0.9950000,0.00000,4.50000,-10.60000
8.049753,-0.0000000,-0.0610000,0.0000000,-0.0020000,-0.0110000,0.9980000,0.00000,4.40000,-10.60000
8.099090,-0.0000000,-0.0000000,0.0000000,0.0020000,-0.0120000,0.9950000,0.00000,4.40000,-10.50000
8.149036,-0.0000000,-0.0000000,0.0000000,0.0030000,-0.0130000,0.9960000,0.00000,4.40000,-10.60000
8.198608,-0.0000000,-0.0000000,0.0000000,-0.0030000,-0.0100000,0.9980000,0.00000,4.40000,-10.50000
8.248772,-0.0000000,-0.0000000,0.0000000,0.0040000,-0.0130000,0.9950000,0.00000,4.30000,-10.60000
8.298587,-0.0000000,-0.0000000,0.0000000,0.0010000,-0.0110000,0.9950000,0.00000,4.30000,-10.50000
8.350621,-0.0000000,-0.0000000,0.0000000,-0.0030000,-0.0110000,1.0000000,0.00000,4.50000,-10.40000
8.398173,-0.0000000,-0.0610000,0.0000000,0.0010000,-0.0120000,0.9960000,0.00000,4.40000,-10.50000
8.448088,-0.0000000,-0.0000000,0.0000000,-0.0020000,-0.0110000,0.9990000,0.00000,4.20000,-10.40000
8.497751,-0.0000000,-0.0000000,0.0000000,-0.0010000,-0.0120000,0.9980000,0.00000,4.20000,-10.50000
8.547903,-0.0000000,-0.0000000,0.0000000,0.0040000,-0.0110000,0.9950000,0.20000,4.30000,-10.40000
8.598962,-0.2440000,-0.0610000,0.0610000,0.0010000,-0.0160000,0.9980000,0.00000,4.40000,-10.50000
8.647002,-0.0000000,-0.0000000,0.0610000,-0.0000000,-0.0110000,0.9950000,0.00000,4.40000,-10.50000
8.697473,0.1220000,-0.0000000,0.1220000,0.0010000,-0.0120000,0.9970000,0.00000,4.50000,-10.60000
8.747427,-0.0000000,-0.0000000,0.1220000,-0.0010000,-0.0120000,1.0020000,0.00000,4.50000,-10.70000
8.797277,-0.0000000,-0.0000000,0.1830000,0.0000000,-0.0090000,0.9960000,0.10000,4.50000,-10.70000
8.847398,-0.0000000,-0.0000000,0.0610000,0.0020000,-0.0120000,0.9970000,0.10000,4.60000,-10.50000
8.897336,0.0610000,-0.0000000,0.0610000,-0.0010000,-0.0100000,0.9960000,0.10000,4.50000,-10.50000
8.947221,-0.0000000,-0.0000000,0.0000000,-0.0000000,-0.0110000,0.9970000,0.00000,4.50000,-10.40000
8.996796,-0.0000000,-0.0000000,0.0000000,0.0020000,-0.0120000,0.9980000,0.10000,4.30000,-10.60000
9.046797,-0.0000000,-0.0000000,0.0000000,0.0010000,-0.0110000,0.9950000,0.00000,4.30000,-10.50000
9.096492,-0.0000000,0.0610000,0.0000000,0.0000000,-0.0120000,1.0000000,0.00000,4.50000,-10.50000
9.146566,0.0610000,-0.0000000,0.0000000,0.0020000,-0.0100000,0.9960000,0.00000,4.30000,-10.50000
9.195675,0.0610000,-0.0000000,0.0000000,-0.0000000,-0.0110000,0.9960000,0.00000,4.40000,-10.50000
9.246119,-0.0000000,-0.0000000,0.0000000,0.0000000,-0.0110000,0.9980000,0.20000,4.40000,-10.50000
9.296308,-0.0000000,-0.0000000,0.0000000,0.0000000,-0.0120000,0.9960000,0.00000,4.40000,-10.60000
9.345953,-0.0000000,-0.0000000,0.0000000,-0.0010000,-0.0110000,0.9970000,0.00000,4.40000,-10.50000
9.398282,-0.0000000,-0.0000000,0.0000000,-0.0000000,-0.0120000,0.9980000,0.10000,4.50000,-10.50000
9.448480,0.0610000,-0.0000000,0.0000000,0.0010000,-0.0110000,0.9970000,0.00000,4.40000,-10.50000
9.495445,-0.0000000,-0.1220000,0.0000000,0.0040000,-0.0160000,0.9960000,0.00000,4.50000,-10.40000
9.552308,-0.0000000,-0.0000000,0.0000000,0.0010000,-0.0110000,0.9950000,0.10000,4.50000,-10.50000
9.596775,-0.0000000,-0.0000000,0.0000000,-0.0010000,-0.0110000,0.9990000,0.10000,4.40000,-10.60000
9.654155,-0.0000000,-0.0000000,0.0000000,-0.0010000,-0.0100000,0.9980000,0.00000,4.40000,-10.70000
9.694928,-0.0000000,-0.0000000,0.0000000,0.0030000,-0.0110000,0.9950000,0.10000,4.50000,-10.60000
9.744903,-0.0000000,-0.0000000,0.0000000,-0.0000000,-0.0120000,0.9980000,0.00000,4.50000,-10.60000
9.794743,-0.0000000,-0.0000000,0.0000000,-0.0000000,-0.0110000,0.9980000,0.00000,4.40000,-10.50000
9.844561,-0.0000000,-0.0000000,0.0000000,0.0010000,-0.0120000,0.9980000,0.10000,4.40000,-10.60000
9.894732,-0.0000000,-0.0000000,0.0000000,-0.0010000,-0.0110000,0.9970000,0.10000,4.40000,-10.50000
9.943777,-0.0000000,-0.0000000,0.0000000,-0.0000000,-0.0110000,0.9960000,0.00000,4.40000,-10.50000
9.995492,-0.0000000,-0.0000000,0.0000000,0.0020000,-0.0110000,0.9970000,0.20000,4.40000,-10.70000
10.044165,-0.0000000,-0.0000000,0.0000000,0.0000000,-0.0120000,0.9960000,0.00000,4.40000,-10.70000
10.093912,-0.0000000,-0.0000000,0.0000000,-0.0000000,-0.0120000,0.9960000,0.10000,4.40000,-10.60000
10.143927,-0.0000000,-0.0000000,0.0000000,0.0010000,-0.0130000,0.9980000,0.10000,4.30000,-10.70000
10.196654,-0.0000000,-0.0000000,0.0000000,0.0010000,-0.0110000,0.9970000,0.20000,4.40000,-10.60000
10.243635,-0.0000000,-0.0000000,0.0000000,-0.0010000,-0.0120000,0.9960000,0.00000,4.50000,-10.60000
10.293824,-0.0000000,-0.0000000,0.0000000,0.0010000,-0.0110000,0.9970000,0.00000,4.50000,-10.50000
10.351449,-0.0000000,-0.0000000,0.0000000,0.0000000,-0.0100000,0.9980000,0.00000,4.50000,-10.60000
10.393258,-0.0000000,-0.0000000,0.0000000,0.0000000,-0.0120000,0.9960000,-0.20000,4.30000,-10.40000
10.444741,-0.0000000,-0.0000000,0.0000000,0.0010000,-0.0110000,0.9970000,-0.10000,4.40000,-10.50000
10.493346,-0.0000000,-0.0000000,0.0000000,0.0010000,-0.0120000,0.9990000,0.00000,4.40000,-10.50000
10.542791,-0.0000000,-0.0000000,0.0000000,0.0010000,-0.0110000,0.9950000,0.10000,4.50000,-10.50000
10.592985,-0.0000000,-0.0000000,0.0000000,0.0010000,-0.0100000,0.9970000,0.00000,4.40000,-10.60000
10.643247,-0.0000000,-0.0000000,0.0000000,0.0010000,-0.0090000,0.9970000,0.00000,4.30000,-10.50000
10.692586,-0.0000000,-0.0000000,0.0000000,0.0000000,-0.0100000,0.9940000,0.00000,4.30000,-10.50000
10.742342,-0.0000000,-0.0000000,0.0000000,0.0010000,-0.0110000,0.9960000,-0.10000,4.40000,-10.40000
10.792534,-0.0000000,-0.0000000,0.0000000,0.0010000,-0.0110000,0.9960000,0.00000,4.50000,-10.30000
10.847897,-0.0000000,-0.0000000,0.0000000,-0.0000000,-0.0110000,0.9990000,0.00000,4.40000,-10.40000
10.893225,-0.0000000,-0.0000000,0.0000000,0.0010000,-0.0120000,0.9960000,0.00000,4.60000,-10.50000
10.941465,-0.0000000,-0.0000000,0.0000000,-0.0000000,-0.0110000,0.9970000,0.00000,4.60000,-10.50000
10.994199,-0.0000000,-0.0000000,0.0000000,0.0010000,-0.0110000,0.9980000,-0.20000,4.40000,-10.50000
11.041744,-0.0000000,-0.0000000,0.0000000,0.0010000,-0.0110000,0.9960000,0.00000,4.50000,-10.70000
11.091653,-0.0000000,-0.0000000,0.0000000,0.0000000,-0.0110000,1.0000000,0.10000,4.30000,-10.40000
11.141336,-0.0000000,-0.0000000,0.0000000,0.0000000,-0.0110000,0.9990000,0.00000,4.40000,-10.50000
11.191676,1.2210000,0.6100000,0.0000000,0.0010000,-0.0110000,0.9930000,0.00000,4.40000,-10.40000
11.241407,5.9200000,1.2210000,0.1220000,-0.0080000,0.0290000,0.9680000,0.10000,4.30000,-10.60000
11.296185,-1.6480000,-1.2820000,0.0000000,-0.0000000,-0.0030000,0.9980000,0.00000,4.30000,-10.60000
11.341126,13.0000000,2.2580000,0.0000000,0.0010000,-0.0060000,1.0060000,0.00000,4.40000,-10.60000
11.392852,-0.9160000,-0.8540000,0.3050000,-0.0040000,0.0090000,1.0090000,0.00000,4.20000,-10.60000
11.440147,1.0380000,-0.0000000,0.0000000,-0.0000000,-0.0040000,1.0160000,0.00000,4.30000,-10.60000
11.495016,13.3060000,0.7320000,-0.9160000,-0.0020000,0.0100000,1.0020000,0.00000,4.30000,-10.50000
11.541051,36.7430000,2.9910000,-0.2440000,-0.0110000,0.0500000,0.9950000,0.00000,4.10000,-10.60000
11.600523,42.9690000,2.0750000,0.0000000,-0.0040000,0.0960000,0.9830000,0.10000,3.80000,-10.70000
11.641161,42.9690000,2.3800000,-1.2210000,-0.0070000,0.1130000,0.9900000,0.00000,3.30000,-10.90000
11.690518,54.9320000,2.2580000,-2.0140000,-0.0130000,0.1430000,0.9870000,0.10000,2.90000,-11.10000
11.740475,12.6950000,1.0380000,-5.0050000,-0.0020000,0.2050000,0.9660000,0.10000,2.50000,-11.00000
11.790276,20.1420000,-1.4650000,-3.7840000,-0.0100000,0.1940000,0.9830000,0.10000,2.30000,-11.00000
11.840236,64.0260000,-1.8310000,-0.7320000,-0.0090000,0.2150000,0.9770000,0.00000,1.90000,-11.20000
11.889784,63.8430000,-1.7090000,-0.1220000,-0.0120000,0.2970000,0.9290000,0.00000,1.40000,-11.30000
11.939937,59.6920000,-3.0520000,-0.1220000,-0.0080000,0.3510000,0.9260000,0.00000,0.80000,-11.30000
11.989831,64.6360000,-5.3100000,-0.9160000,-0.0030000,0.3790000,0.9190000,0.00000,0.30000,-11.40000
12.040021,81.8480000,-7.5070000,-4.7610000,0.0110000,0.4110000,0.9240000,-0.10000,-0.20000,-11.30000
12.089714,82.3970000,-4.9440000,1.4040000,-0.0030000,0.4910000,0.8620000,-0.20000,-0.70000,-11.30000
12.139547,88.9280000,-1.1600000,0.7930000,0.0120000,0.5680000,0.7980000,-0.20000,-1.60000,-11.10000
12.189459,74.8290000,1.0380000,0.4270000,0.0110000,0.6490000,0.7500000,-0.30000,-2.40000,-10.90000
12.242935,71.7770000,-2.3190000,0.7930000,0.0070000,0.6700000,0.7280000,-0.20000,-3.10000,-10.60000
12.289349,81.9090000,2.8690000,-5.2490000,0.0050000,0.7060000,0.6930000,-0.10000,-3.80000,-10.40000
12.339178,80.6880000,-0.5490000,-3.2960000,0.0110000,0.7780000,0.6120000,-0.10000,-4.60000,-10.00000
12.388954,104.1260000,-3.5400000,-3.9670000,0.0050000,0.8100000,0.5540000,-0.10000,-5.10000,-9.60000
12.438913,85.3270000,-1.0380000,-5.4930000,0.0040000,0.8730000,0.4890000,-0.10000,-5.80000,-9.20000
12.488566,81.6650000,-5.4930000,-2.3190000,0.0000000,0.9040000,0.4290000,-0.20000,-6.60000,-8.80000
12.538410,78.1250000,0.3660000,-2.1970000,0.0050000,0.9460000,0.3370000,-0.20000,-7.20000,-8.40000
12.588347,88.3790000,-2.8690000,-6.2870000,0.0010000,0.9670000,0.2660000,0.00000,-7.70000,-7.80000
12.639173,67.8100000,0.3050000,-3.8450000,-0.0030000,0.9860000,0.1950000,0.00000,-8.10000,-7.20000
12.688225,22.7050000,-0.0610000,-2.2580000,-0.0120000,0.9990000,0.1770000,0.10000,-8.30000,-6.70000
12.737920,13.0620000,0.4880000,-7.3850000,-0.0060000,0.9790000,0.2050000,0.00000,-8.40000,-6.50000
12.788034,29.2360000,2.1360000,0.1830000,-0.0370000,0.9970000,0.1590000,0.10000,-8.50000,-6.40000
12.843224,16.9680000,-1.2210000,6.3480000,-0.0110000,0.9950000,0.1480000,0.00000,-8.70000,-6.30000
12.887611,25.9400000,0.3050000,6.2260000,-0.0050000,0.9690000,0.1480000,0.00000,-8.80000,-6.10000
12.942959,45.4710000,1.0380000,9.2160000,0.0230000,0.9980000,0.0960000,0.00000,-9.00000,-5.70000
12.987673,29.7240000,-0.4880000,1.2210000,0.0280000,0.9910000,0.0600000,-0.20000,-9.20000,-5.60000
13.037586,23.3150000,0.9160000,-5.0050000,0.0050000,0.9980000,0.0280000,0.00000,-9.40000,-5.20000
13.087200,-2.8080000,-0.3050000,-0.0610000,0.0070000,1.0110000,0.0200000,0.00000,-9.30000,-5.20000
13.137034,-0.0000000,1.0990000,-2.6250000,0.0120000,0.9900000,0.0480000,0.00000,-9.30000,-5.30000
13.186861,1.2820000,-0.1830000,1.4040000,0.0070000,0.9960000,0.0380000,0.00000,-9.30000,-5.20000
13.237069,4.4560000,-0.0610000,-1.0990000,0.0070000,0.9930000,0.0350000,0.00000,-9.30000,-5.20000
13.286813,4.7000000,-0.1830000,-0.4270000,0.0080000,0.9970000,0.0290000,0.00000,-9.30000,-5.10000
13.338281,1.2820000,0.0610000,-0.1220000,0.0060000,0.9960000,0.0210000,0.00000,-9.30000,-5.00000
13.386498,-0.5490000,0.6100000,-2.7470000,0.0060000,0.9940000,0.0310000,0.00000,-9.30000,-5.00000
13.440607,-0.0000000,-0.0000000,1.0990000,0.0070000,0.9980000,0.0240000,-0.10000,-9.30000,-5.00000
13.486165,-4.0280000,0.3050000,-1.0380000,0.0070000,0.9950000,0.0320000,-0.10000,-9.40000,-4.90000
13.543689,3.9670000,0.1220000,0.4270000,0.0020000,0.9910000,0.0320000,-0.20000,-9.40000,-5.00000
13.585957,-0.0000000,-0.1830000,0.4270000,0.0070000,0.9930000,0.0320000,-0.20000,-9.50000,-5.10000
13.635678,3.9670000,-0.0610000,-0.5490000,0.0030000,0.9910000,0.0280000,-0.20000,-9.40000,-5.10000
13.685580,3.5400000,-0.0610000,0.5490000,0.0080000,0.9990000,0.0190000,-0.10000,-9.40000,-5.00000
13.735469,-0.0000000,-0.0000000,-0.5490000,0.0030000,0.9940000,0.0250000,-0.20000,-9.30000,-5.00000
13.785736,-1.2210000,-0.0610000,-0.3660000,0.0080000,1.0010000,0.0160000,-0.20000,-9.20000,-4.90000
13.835276,-0.1220000,-0.0000000,-0.3050000,0.0060000,0.9930000,0.0250000,-0.20000,-9.30000,-5.10000
13.885135,-1.8920000,0.1830000,0.0000000,0.0100000,1.0020000,0.0200000,0.00000,-9.30000,-5.00000
13.934958,-0.9160000,-0.1830000,-0.1830000,0.0050000,0.9940000,0.0260000,-0.10000,-9.50000,-5.10000
13.985116,-1.0380000,0.1220000,-1.5260000,-0.0010000,0.9940000,0.0180000,0.10000,-9.30000,-5.00000
14.034888,0.0610000,-0.0000000,-0.6100000,0.0060000,0.9930000,0.0270000,0.00000,-9.40000,-4.90000
14.084730,0.0610000,-0.0000000,-0.4270000,0.0060000,0.9980000,0.0210000,0.00000,-9.40000,-4.80000
14.134867,-2.5020000,0.1830000,-2.1970000,0.0040000,0.9940000,0.0330000,0.00000,-9.40000,-5.00000
14.184756,1.7700000,-0.3050000,1.4040000,0.0060000,1.0010000,0.0210000,-0.10000,-9.60000,-5.00000
14.234343,-2.4410000,-0.1830000,-1.2210000,0.0020000,0.9960000,0.0250000,0.00000,-9.50000,-5.00000
14.285208,1.9530000,-0.1830000,1.3430000,0.0010000,0.9950000,0.0230000,0.00000,-9.60000,-5.00000
14.334567,0.1830000,-0.1220000,0.4270000,0.0060000,0.9970000,0.0230000,-0.10000,-9.50000,-5.00000
14.384100,1.8920000,-0.1220000,1.6480000,0.0040000,0.9960000,0.0260000,0.00000,-9.50000,-5.10000
14.433849,-1.4040000,0.1220000,-0.6100000,0.0070000,1.0000000,0.0200000,0.00000,-9.30000,-5.00000
14.489423,-1.8310000,-0.0000000,-0.6710000,0.0020000,0.9960000,0.0270000,0.00000,-9.40000,-5.20000
14.533716,-1.4040000,0.2440000,0.2440000,0.0040000,0.9980000,0.0250000,-0.10000,-9.40000,-5.20000
14.583525,0.3660000,-0.0000000,0.0000000,0.0030000,0.9960000,0.0260000,0.00000,-9.30000,-5.20000
14.633299,0.0610000,-0.0000000,-0.0610000,0.0070000,0.9960000,0.0290000,-0.10000,-9.50000,-5.10000
14.683250,-0.0610000,0.2440000,-0.9160000,0.0020000,0.9960000,0.0270000,-0.10000,-9.40000,-4.90000
14.733052,0.6710000,-0.3050000,1.2820000,0.0020000,0.9960000,0.0270000,0.00000,-9.30000,-5.00000
14.783187,-0.7320000,-0.4880000,-0.4270000,0.0030000,0.9960000,0.0270000,-0.10000,-9.40000,-5.00000
14.833015,1.2820000,-0.1830000,1.2210000,0.0050000,0.9950000,0.0300000,0.00000,-9.40000,-5.00000
14.886207,0.3050000,0.0610000,-1.5260000,0.0040000,0.9980000,0.0220000,0.00000,-9.50000,-5.00000
14.932566,-2.1970000,-0.4270000,0.2440000,0.0030000,0.9920000,0.0310000,0.00000,-9.50000,-5.10000
14.982934,-0.0000000,-0.1220000,1.0990000,0.0040000,0.9980000,0.0250000,0.00000,-9.40000,-5.20000
15.034233,0.4880000,-0.0000000,-0.2440000,0.0070000,0.9960000,0.0310000,0.00000,-9.40000,-5.00000
15.082503,3.7840000,-0.0000000,0.5490000,0.0040000,0.9970000,0.0260000,0.00000,-9.40000,-5.10000
15.132108,-1.3430000,-0.0000000,0.0000000,0.0080000,1.0000000,0.0230000,0.00000,-9.40000,-5.00000
15.182059,0.3050000,-0.0000000,0.1830000,0.0030000,0.9960000,0.0270000,0.00000,-9.30000,-5.00000
15.231793,-0.6710000,-0.0000000,0.0000000,0.0060000,0.9990000,0.0200000,0.00000,-9.30000,-5.00000
15.285740,0.4880000,-0.0000000,-0.1220000,0.0010000,0.9910000,0.0230000,0.00000,-9.30000,-5.00000
15.331700,0.1220000,0.1830000,0.6710000,0.0060000,0.9970000,0.0200000,0.00000,-9.30000,-4.90000
15.386520,-0.1830000,-0.0610000,-0.4270000,0.0050000,0.9960000,0.0240000,0.00000,-9.40000,-5.10000
15.431473,-0.0610000,-0.0000000,0.1830000,0.0040000,0.9990000,0.0190000,-0.10000,-9.20000,-5.00000
15.486373,-0.2440000,-0.0610000,0.0000000,0.0040000,0.9940000,0.0260000,-0.20000,-9.50000,-5.00000
15.532218,1.4040000,-0.0000000,0.7320000,0.0060000,1.0000000,0.0170000,0.00000,-9.50000,-4.90000
15.591179,-0.9770000,-0.0000000,-0.3050000,0.0060000,0.9950000,0.0220000,-0.10000,-9.50000,-5.00000
15.631356,-0.1830000,-0.1220000,0.4270000,0.0070000,0.9970000,0.0210000,-0.10000,-9.50000,-5.10000
15.680925,0.1220000,-0.0000000,-0.1830000,0.0040000,0.9970000,0.0190000,-0.10000,-9.40000,-5.00000
15.730600,-0.2440000,-0.0000000,0.0610000,0.0050000,0.9950000,0.0240000,-0.10000,-9.30000,-5.00000
15.780458,1.1600000,-0.1220000,0.4880000,0.0070000,0.9980000,0.0180000,0.00000,-9.30000,-5.00000
15.830456,0.6100000,-0.0000000,-0.3050000,0.0070000,0.9960000,0.0180000,-0.10000,-9.40000,-5.00000
15.880190,-0.4270000,-0.0000000,0.3050000,0.0040000,0.9920000,0.0190000,0.00000,-9.40000,-5.00000
15.930318,0.3660000,0.1220000,0.1220000,0.0040000,0.9960000,0.0180000,-0.10000,-9.20000,-5.00000
15.979787,-0.0000000,0.1220000,-0.4270000,0.0070000,0.9940000,0.0210000,0.00000,-9.30000,-5.10000
16.030621,0.2440000,-0.0000000,0.1830000,0.0070000,0.9990000,0.0190000,-0.10000,-9.30000,-5.10000
16.079794,0.9770000,0.2440000,-0.3660000,0.0050000,0.9950000,0.0210000,-0.20000,-9.50000,-5.00000
16.129747,0.4270000,-0.0610000,0.4880000,0.0040000,0.9980000,0.0180000,-0.10000,-9.40000,-4.90000
16.183519,0.7320000,-0.0000000,0.1830000,0.0060000,0.9960000,0.0160000,0.00000,-9.30000,-5.00000
16.229270,1.8920000,-0.0000000,0.4270000,0.0050000,0.9950000,0.0170000,0.00000,-9.40000,-4.80000
16.280110,0.3050000,-0.0000000,-0.3050000,0.0050000,0.9970000,0.0140000,-0.10000,-9.40000,-4.90000
16.329136,-0.4270000,-0.0000000,0.1830000,0.0050000,0.9970000,0.0150000,-0.10000,-9.40000,-5.10000
16.378851,2.6860000,-0.0000000,0.1830000,0.0050000,0.9940000,0.0150000,0.00000,-9.40000,-5.10000
16.428935,1.1600000,-0.0000000,-0.3050000,0.0030000,0.9940000,0.0160000,0.00000,-9.40000,-5.00000
16.478719,0.9160000,-0.0610000,0.4880000,0.0060000,0.9950000,0.0130000,0.00000,-9.50000,-4.90000
16.528612,-0.7320000,-0.0610000,0.0000000,0.0050000,0.9960000,0.0130000,0.00000,-9.50000,-4.80000
16.578626,-0.0000000,-0.0000000,0.0000000,0.0060000,0.9960000,0.0150000,0.00000,-9.40000,-4.90000
16.628286,0.9770000,-0.0000000,0.0610000,0.0060000,0.9960000,0.0160000,-0.20000,-9.40000,-4.90000
16.681878,-0.2440000,-0.0610000,-0.1830000,0.0070000,0.9980000,0.0130000,-0.10000,-9.40000,-4.90000
16.728168,-0.4270000,-0.0000000,0.0000000,0.0050000,0.9980000,0.0150000,-0.20000,-9.40000,-4.90000
16.777927,1.8310000,0.0610000,0.1830000,0.0060000,0.9960000,0.0130000,-0.10000,-9.40000,-4.90000
16.828301,-0.6710000,-0.0000000,0.0000000,0.0040000,0.9980000,0.0140000,0.00000,-9.70000,-4.70000
16.878084,1.2820000,0.0610000,0.1220000,0.0050000,0.9970000,0.0130000,-0.10000,-9.50000,-4.90000
16.929995,-2.1360000,-0.0000000,-0.2440000,0.0050000,0.9950000,0.0130000,0.00000,-9.40000,-4.90000
16.977444,-0.7930000,-0.0000000,0.0000000,0.0030000,0.9960000,0.0150000,0.00000,-9.50000,-5.10000
17.027447,0.0610000,0.1830000,-0.4880000,0.0070000,0.9950000,0.0140000,0.00000,-9.50000,-5.00000
17.077849,0.1220000,-0.0610000,0.0610000,0.0040000,0.9960000,0.0140000,-0.10000,-9.50000,-5.00000
17.127941,-0.5490000,-0.0000000,0.4270000,0.0060000,0.9950000,0.0170000,0.00000,-9.50000,-5.00000
17.176927,-0.1830000,-0.0000000,-0.4270000,0.0050000,0.9950000,0.0170000,0.00000,-9.40000,-5.00000
17.229707,0.6100000,-0.0000000,0.4270000,0.0070000,0.9980000,0.0130000,-0.10000,-9.30000,-4.90000
17.277204,-0.1830000,-0.0000000,0.6710000,0.0050000,0.9970000,0.0160000,-0.20000,-9.30000,-4.90000
17.332024,1.3430000,0.0610000,-0.4270000,0.0070000,0.9970000,0.0150000,-0.10000,-9.40000,-5.00000
17.376759,-2.1360000,0.2440000,-0.3660000,0.0060000,0.9970000,0.0120000,-0.10000,-9.50000,-5.00000
17.428868,-0.0000000,0.5490000,-0.9770000,0.0030000,0.9940000,0.0200000,-0.10000,-9.40000,-5.00000
17.476379,-3.6010000,0.0610000,-1.0380000,0.0020000,0.9950000,0.0190000,-0.10000,-9.50000,-4.90000
17.525972,-0.6710000,-0.0000000,-0.0610000,0.0030000,0.9950000,0.0210000,0.00000,-9.40000,-5.10000
17.576362,0.8540000,0.3050000,-0.6710000,0.0060000,0.9960000,0.0180000,0.00000,-9.50000,-5.10000
17.627236,-1.2210000,-0.0610000,-0.0610000,-0.0000000,0.9980000,0.0170000,-0.10000,-9.50000,-5.10000
17.675665,-1.5870000,-0.7930000,-0.4880000,0.0030000,0.9940000,0.0260000,0.00000,-9.50000,-5.00000
17.725488,2.7470000,-1.8310000,-7.7510000,0.0030000,0.9990000,0.0130000,0.00000,-9.50000,-4.90000
17.776097,1.4650000,-6.7140000,-8.5450000,0.0060000,1.0610000,0.1460000,0.00000,-9.40000,-4.80000
17.826945,1.0380000,2.5020000,-4.4560000,-0.0250000,1.0000000,0.0100000,0.00000,-9.40000,-5.00000
17.875324,3.0520000,-0.3050000,1.5260000,-0.0200000,0.9960000,0.0070000,0.20000,-9.30000,-4.90000
17.931678,2.1360000,-0.0610000,1.2210000,-0.0140000,1.0020000,-0.0010000,0.10000,-9.40000,-4.90000
17.975150,-5.0050000,-0.6100000,-1.4040000,-0.0110000,1.0000000,0.0040000,-0.20000,-9.40000,-4.80000
18.031871,-2.6250000,-0.2440000,-1.6480000,-0.0120000,0.9890000,0.0160000,0.00000,-9.40000,-4.90000
18.075029,-9.0330000,-0.1220000,1.1600000,-0.0110000,0.9960000,0.0140000,0.00000,-9.60000,-4.90000
18.135039,-2.8690000,0.2440000,0.9770000,-0.0120000,0.9910000,0.0270000,0.00000,-9.40000,-5.00000
18.174624,1.8920000,0.4270000,2.3800000,-0.0070000,1.0000000,0.0190000,0.10000,-9.60000,-4.90000
18.225590,-1.2820000,0.1830000,0.3050000,-0.0070000,0.9990000,0.0210000,0.20000,-9.40000,-4.90000
18.274776,-1.0990000,-0.0000000,1.5870000,-0.0060000,0.9990000,0.0230000,0.20000,-9.30000,-5.00000
18.324180,0.7320000,0.4270000,0.8540000,-0.0050000,0.9960000,0.0200000,0.00000,-9.40000,-5.10000
18.373949,-1.2210000,0.2440000,0.7320000,-0.0060000,0.9950000,0.0220000,0.00000,-9.40000,-5.10000
18.423782,0.3660000,0.1830000,1.7090000,-0.0060000,0.9950000,0.0210000,0.00000,-9.50000,-5.10000
18.474550,0.9770000,0.2440000,0.8540000,-0.0040000,0.9970000,0.0210000,0.00000,-9.40000,-5.00000
18.523571,-1.4040000,0.0610000,0.6710000,-0.0040000,0.9960000,0.0220000,0.00000,-9.50000,-5.10000
18.574752,-1.3430000,0.2440000,0.0000000,-0.0030000,0.9980000,0.0230000,-0.10000,-9.30000,-5.10000
18.623428,-1.6480000,-0.0000000,0.8540000,-0.0030000,0.9970000,0.0220000,0.00000,-9.30000,-5.00000
18.673338,0.6710000,0.4880000,-1.2210000,-0.0020000,0.9980000,0.0280000,0.00000,-9.50000,-5.00000
18.722874,-2.5020000,-0.0000000,0.9770000,-0.0060000,0.9970000,0.0240000,-0.10000,-9.30000,-5.00000
18.773075,-5.9810000,0.1220000,0.4270000,0.0000000,1.0000000,0.0310000,0.00000,-9.50000,-5.00000
18.825102,-7.5070000,0.4880000,-0.5490000,-0.0040000,1.0000000,0.0330000,0.00000,-9.30000,-5.20000
18.872930,-14.2210000,0.2440000,-0.9770000,-0.0010000,1.0020000,0.0470000,0.00000,-9.30000,-5.30000
18.922668,-16.1740000,1.2210000,-0.1830000,-0.0030000,0.9960000,0.0600000,0.10000,-9.30000,-5.30000
18.972526,-18.1270000,1.0380000,0.6100000,-0.0000000,0.9940000,0.0730000,0.00000,-9.20000,-5.30000
19.024269,-18.9210000,1.3430000,-1.0380000,-0.0010000,0.9960000,0.0840000,0.10000,-9.10000,-5.50000
19.073301,-36.8040000,1.8920000,-2.5630000,-0.0010000,0.9900000,0.1130000,0.30000,-8.90000,-5.80000
19.122403,-45.1660000,3.2960000,-2.6860000,-0.0090000,0.9830000,0.1490000,0.10000,-8.70000,-6.10000
19.179838,-47.6680000,0.8540000,0.1830000,-0.0060000,0.9780000,0.1820000,0.00000,-8.70000,-6.40000
19.222003,-49.7440000,4.1500000,-3.1130000,-0.0110000,0.9760000,0.2140000,0.10000,-8.50000,-6.80000
19.275565,-47.0580000,1.0990000,0.9770000,-0.0170000,0.9580000,0.2500000,0.10000,-8.20000,-7.00000
19.321889,-60.5470000,4.2720000,-0.3660000,-0.0070000,0.9620000,0.3040000,0.00000,-8.10000,-7.30000
19.381279,-78.7350000,4.8220000,1.8310000,-0.0130000,0.9350000,0.3520000,0.00000,-7.70000,-7.90000
19.421472,-77.1480000,4.5170000,4.8220000,-0.0060000,0.8840000,0.4210000,0.10000,-7.30000,-8.30000
19.471345,-80.0780000,9.0940000,0.9770000,-0.0150000,0.8690000,0.4690000,0.00000,-6.50000,-8.80000
19.521339,-64.5140000,-1.0990000,4.1500000,0.0060000,0.8330000,0.5510000,0.00000,-6.00000,-9.30000
19.571414,-67.8710000,3.1740000,-2.9300000,-0.0140000,0.7880000,0.6010000,0.10000,-5.50000,-9.70000
19.621110,-65.9180000,4.7610000,-0.7320000,-0.0510000,0.7240000,0.5820000,0.00000,-4.90000,-10.10000
19.670677,-59.8140000,0.7320000,4.4560000,-0.0240000,0.7470000,0.6630000,0.10000,-4.50000,-10.30000
19.720946,-106.9950000,24.1700000,15.8690000,0.0220000,0.6590000,0.7470000,0.10000,-3.80000,-10.50000
19.770603,-98.4500000,11.1690000,-1.9530000,-0.0100000,0.6220000,0.7950000,0.10000,-3.10000,-10.90000
19.826736,-76.5380000,-1.7700000,-1.7090000,-0.0300000,0.5620000,0.7950000,0.10000,-2.20000,-11.10000
19.870420,-84.8390000,-3.3570000,-3.0520000,-0.0120000,0.5250000,0.8490000,0.20000,-1.40000,-11.40000
19.920259,-78.0640000,-1.2210000,-0.4270000,-0.0230000,0.3900000,0.9100000,0.10000,-0.70000,-11.30000
19.969946,-78.5520000,-2.8690000,-1.7090000,-0.0130000,0.3640000,0.9200000,0.00000,0.00000,-11.50000
20.021664,-88.9890000,-2.7470000,-3.2960000,-0.0110000,0.3060000,0.9500000,0.20000,0.70000,-11.40000
20.069931,-71.6550000,-0.6100000,0.0000000,-0.0070000,0.2580000,0.9460000,0.10000,1.50000,-11.30000
20.119820,-58.5330000,-4.2720000,0.7320000,-0.0210000,0.1540000,0.9790000,0.30000,2.30000,-11.10000
20.170199,-44.6780000,-3.7840000,1.8310000,-0.0040000,0.1160000,0.9860000,0.20000,2.90000,-11.10000
20.219415,-47.7910000,-2.3190000,-0.3050000,-0.0100000,0.0820000,0.9960000,0.10000,3.40000,-11.00000
20.269323,-35.9500000,-4.1500000,1.2210000,-0.0100000,0.0190000,1.0180000,0.00000,3.80000,-11.00000
20.319189,-11.9630000,-0.7930000,0.3660000,-0.0010000,0.0210000,0.9990000,0.20000,4.10000,-10.70000
20.369076,-10.7420000,-1.1600000,0.7930000,0.0010000,0.0140000,1.0020000,0.00000,4.10000,-10.70000
20.418950,-9.8270000,-0.1220000,-0.1220000,-0.0160000,-0.0930000,1.0480000,0.00000,4.10000,-10.60000
20.468673,-3.3570000,-0.4880000,-0.2440000,-0.0050000,0.0230000,0.9840000,0.10000,4.20000,-10.50000
20.519782,-0.7930000,-0.3660000,-0.2440000,-0.0020000,0.0030000,0.9930000,0.00000,4.20000,-10.30000
20.567690,-2.7470000,0.2440000,0.0000000,-0.0000000,-0.0000000,1.0030000,0.00000,4.20000,-10.40000
20.618305,0.6710000,-0.7930000,0.1220000,-0.0000000,0.0050000,1.0000000,0.10000,4.20000,-10.30000
20.668187,-3.2960000,0.1220000,0.1220000,0.0030000,0.0000000,0.9980000,0.10000,4.30000,-10.50000
20.718078,-4.0280000,0.4270000,0.1830000,0.0010000,-0.0020000,1.0000000,0.20000,4.20000,-10.30000
20.767777,-0.6100000,0.1830000,0.0000000,0.0020000,0.0000000,1.0050000,0.00000,4.40000,-10.40000
20.818071,-0.3050000,0.1830000,-0.2440000,0.0030000,-0.0070000,1.0020000,0.10000,4.40000,-10.40000
20.867726,-0.1220000,0.4270000,-0.1220000,0.0020000,-0.0050000,0.9960000,0.00000,4.40000,-10.50000
20.917664,-0.3660000,-0.1830000,-0.1220000,-0.0040000,-0.0010000,0.9920000,0.00000,4.50000,-10.70000
20.967238,-1.1600000,-0.2440000,0.1220000,0.0120000,0.0050000,1.0080000,0.00000,4.50000,-10.50000
21.018803,-0.8540000,-0.0610000,0.0000000,0.0060000,-0.0090000,1.0040000,0.00000,4.30000,-10.50000
21.067139,-0.2440000,0.0610000,-0.0610000,-0.0010000,-0.0050000,0.9940000,0.00000,4.40000,-10.50000
21.121991,-0.6710000,-0.0610000,0.0610000,0.0010000,-0.0050000,1.0010000,0.00000,4.40000,-10.50000
21.167118,0.4880000,1.0380000,0.0000000,-0.0010000,-0.0050000,1.0020000,-0.10000,4.40000,-10.50000
21.217674,-0.1220000,-0.6710000,-0.1830000,-0.0080000,-0.0150000,1.0010000,0.00000,4.50000,-10.50000
21.266759,-3.6620000,-1.1600000,0.0000000,0.0150000,-0.0640000,1.0000000,0.00000,4.20000,-10.40000
21.316689,1.7090000,0.3660000,0.0610000,0.0020000,-0.0080000,1.0010000,0.00000,4.30000,-10.50000
21.366761,-0.7930000,-0.0000000,0.0610000,-0.0110000,0.0100000,0.9840000,0.00000,4.30000,-10.40000
21.416272,0.3660000,0.1830000,0.1830000,-0.0030000,-0.0030000,0.9830000,0.00000,4.30000,-10.50000
21.466638,-0.3050000,0.3660000,-0.1220000,0.0040000,-0.0050000,0.9990000,0.10000,4.40000,-10.60000
21.515967,-0.5490000,-0.1830000,0.0000000,-0.0030000,0.0050000,0.9960000,0.10000,4.40000,-10.60000
21.565890,-0.4880000,-0.0000000,0.0000000,-0.0140000,0.0270000,1.0020000,0.00000,4.40000,-10.60000
21.615837,-2.9910000,-0.7930000,0.1830000,0.0040000,-0.0340000,0.9950000,0.00000,4.40000,-10.70000
21.665609,-0.4270000,-0.0000000,0.0000000,-0.0010000,-0.0080000,0.9960000,0.00000,4.50000,-10.60000
21.715443,-0.0610000,-0.0000000,0.0000000,-0.0010000,-0.0080000,0.9960000,0.10000,4.40000,-10.50000
21.765389,-0.0000000,0.0610000,0.0000000,0.0010000,-0.0110000,0.9980000,0.10000,4.30000,-10.50000
21.815072,-0.0000000,-0.0000000,0.0000000,-0.0000000,-0.0100000,0.9980000,0.00000,4.40000,-10.50000
21.865123,-0.0000000,0.0610000,0.0000000,0.0000000,-0.0100000,0.9960000,0.00000,4.30000,-10.50000
21.914856,-0.0000000,-0.0000000,0.0000000,0.0010000,-0.0120000,0.9960000,0.00000,4.30000,-10.60000
21.964545,-0.0000000,-0.0000000,0.0000000,-0.0000000,-0.0100000,0.9950000,0.20000,4.40000,-10.50000
22.014627,0.0610000,-0.0000000,0.0610000,0.0000000,-0.0100000,0.9980000,0.10000,4.40000,-10.50000
22.064459,-0.0000000,-0.0000000,0.0000000,0.0010000,-0.0120000,0.9990000,0.00000,4.40000,-10.40000
22.114127,-0.0000000,-0.0000000,0.0000000,-0.0000000,-0.0100000,0.9980000,0.00000,4.40000,-10.60000
22.164573,0.0610000,-0.0000000,0.0000000,0.0000000,-0.0110000,0.9970000,0.10000,4.30000,-10.50000
22.214155,-0.0000000,0.0610000,0.0610000,0.0020000,-0.0100000,0.9970000,0.00000,4.30000,-10.60000
22.264089,-0.0000000,-0.0000000,0.0000000,-0.0000000,-0.0090000,0.9980000,0.10000,4.40000,-10.60000
22.313571,-0.0000000,-0.0000000,0.0610000,-0.0000000,-0.0100000,0.9970000,0.00000,4.40000,-10.50000
22.363901,-0.0000000,-0.0000000,0.0000000,0.0000000,-0.0100000,0.9970000,0.00000,4.40000,-10.50000
22.413828,0.0610000,0.0610000,0.0610000,-0.0000000,-0.0090000,0.9970000,0.00000,4.30000,-10.50000
22.463789,0.0610000,-0.0000000,0.0000000,0.0010000,-0.0110000,0.9960000,-0.10000,4.30000,-10.40000
22.513434,-0.0000000,-0.0000000,0.0000000,0.0010000,-0.0120000,0.9980000,-0.10000,4.30000,-10.50000
22.563429,-0.0000000,-0.0000000,0.0000000,-0.0010000,-0.0110000,0.9970000,0.00000,4.20000,-10.50000
22.613066,-0.0000000,-0.0000000,0.0000000,0.0000000,-0.0120000,0.9970000,0.00000,4.30000,-10.60000
22.662925,-0.0000000,-0.0000000,0.0000000,0.0000000,-0.0120000,0.9970000,0.00000,4.30000,-10.50000
22.712430,-0.0000000,-0.0000000,0.0000000,-0.0000000,-0.0110000,0.9960000,0.10000,4.40000,-10.60000
22.763080,-0.0000000,-0.0000000,0.0000000,0.0000000,-0.0110000,0.9960000,0.10000,4.40000,-10.60000
22.812037,-0.0000000,-0.0000000,0.0000000,-0.0000000,-0.0100000,0.9970000,0.00000,4.40000,-10.50000
22.864815,-0.0000000,-0.0000000,0.0000000,0.0000000,-0.0100000,0.9970000,0.00000,4.40000,-10.50000
22.912592,-0.0610000,-0.0610000,0.0610000,-0.0010000,-0.0130000,0.9950000,0.00000,4.30000,-10.60000
22.963910,-0.0000000,-0.0000000,0.0000000,-0.0000000,-0.0110000,0.9950000,0.00000,4.30000,-10.50000
23.012121,0.0610000,-0.0000000,0.0000000,-0.0000000,-0.0100000,0.9970000,0.10000,4.30000,-10.60000
23.067431,-0.0000000,-0.0000000,0.0000000,0.0010000,-0.0110000,0.9970000,0.10000,4.30000,-10.70000
23.112175,0.0610000,-0.0000000,0.0000000,0.0010000,-0.0110000,0.9980000,0.00000,4.20000,-10.50000
23.170009,-0.0000000,-0.0000000,0.0000000,-0.0000000,-0.0090000,0.9980000,0.00000,4.30000,-10.60000
23.211477,0.0610000,-0.0000000,-0.0610000,-0.0000000,-0.0100000,0.9950000,0.00000,4.40000,-10.50000
23.271311,0.2440000,0.0610000,0.1830000,0.0020000,-0.0110000,0.9990000,0.10000,4.40000,-10.60000
23.311615,-0.0000000,-0.0000000,1.3430000,0.0050000,-0.0070000,0.9990000,0.10000,4.20000,-10.50000
23.361532,0.1220000,-0.0000000,0.5490000,-0.0010000,-0.0100000,0.9990000,0.10000,4.40000,-10.50000
23.410746,0.0610000,-0.0000000,-0.0610000,-0.0000000,-0.0100000,0.9950000,0.00000,4.50000,-10.60000
23.461079,-0.0000000,-0.0000000,0.0000000,0.0030000,-0.0100000,0.9940000,0.00000,4.30000,-10.60000
23.513564,0.0610000,-0.0000000,0.0000000,0.0010000,-0.0090000,0.9950000,0.00000,4.40000,-10.70000
23.561528,-0.0000000,0.0610000,0.0610000,-0.0010000,-0.0090000,0.9950000,0.00000,4.30000,-10.60000
23.610760,-0.0000000,-0.0000000,0.0000000,0.0010000,-0.0100000,0.9970000,0.10000,4.50000,-10.50000
23.660743,-0.0000000,-0.0000000,0.1220000,0.0020000,-0.0100000,0.9970000,0.00000,4.40000,-10.50000
23.710724,-0.0000000,0.0610000,0.1830000,0.0010000,-0.0080000,0.9980000,-0.10000,4.40000,-10.50000
23.762850,-0.0000000,-0.0000000,0.0610000,-0.0020000,-0.0120000,1.0000000,0.00000,4.40000,-10.50000
23.809708,-0.0000000,-0.0000000,0.0000000,-0.0000000,-0.0100000,0.9980000,0.00000,4.40000,-10.60000
23.859943,-0.0000000,-0.0000000,0.0000000,0.0000000,-0.0090000,0.9980000,0.00000,4.30000,-10.50000
23.909853,-0.0000000,-0.0000000,0.0000000,0.0000000,-0.0110000,0.9970000,0.10000,4.40000,-10.50000
23.961558,0.0610000,-0.0000000,0.0000000,0.0010000,-0.0100000,0.9940000,0.10000,4.40000,-10.50000
24.009934,0.0610000,-0.0000000,0.0000000,-0.0010000,-0.0100000,0.9960000,0.00000,4.50000,-10.40000
24.059504,-0.0000000,-0.0000000,0.0610000,0.0010000,-0.0100000,0.9980000,0.10000,4.40000,-10.50000
24.109554,-0.0000000,0.0610000,0.0000000,0.0010000,-0.0100000,0.9970000,0.10000,4.40000,-10.50000
24.159287,-0.0000000,-0.0000000,0.0000000,-0.0000000,-0.0100000,0.9970000,0.20000,4.40000,-10.60000
24.209446,-0.0000000,-0.0000000,0.0000000,0.0010000,-0.0120000,0.9960000,0.10000,4.40000,-10.60000
24.259803,-0.0000000,-0.0000000,0.0000000,-0.0010000,-0.0100000,0.9970000,0.10000,4.40000,-10.60000
24.308813,-0.0000000,-0.0000000,0.0000000,-0.0000000,-0.0100000,0.9960000,0.00000,4.50000,-10.40000
24.362765,-0.0000000,-0.0000000,0.0000000,0.0010000,-0.0100000,0.9960000,0.00000,4.40000,-10.60000
24.409698,0.0610000,-0.0000000,0.0000000,-0.0000000,-0.0100000,0.9990000,0.00000,4.30000,-10.60000
24.457923,0.1220000,-0.0000000,0.0000000,-0.0000000,-0.0110000,1.0000000,0.00000,4.40000,-10.60000
24.511531,0.0610000,0.0610000,0.0000000,0.0010000,-0.0110000,0.9970000,0.00000,4.30000,-10.40000
24.558392,0.1220000,-0.0000000,0.0000000,0.0000000,-0.0110000,0.9960000,0.10000,4.30000,-10.40000
24.608226,0.1220000,-0.0000000,0.0000000,-0.0020000,-0.0100000,0.9990000,0.10000,4.40000,-10.60000
24.658076,-0.0000000,-0.0610000,0.0000000,0.0030000,-0.0120000,0.9990000,0.00000,4.40000,-10.50000
24.708085,0.0610000,0.0610000,0.0000000,0.0020000,-0.0110000,0.9990000,0.00000,4.30000,-10.40000
24.757742,-0.0000000,-0.0000000,0.0000000,-0.0000000,-0.0110000,0.9970000,0.10000,4.40000,-10.50000
24.808854,-0.0000000,-0.0000000,0.0000000,0.0020000,-0.0110000,0.9960000,0.00000,4.40000,-10.50000
24.857538,-0.0000000,-0.0000000,0.0000000,0.0010000,-0.0110000,0.9950000,0.00000,4.40000,-10.50000
24.912381,-0.0000000,-0.0000000,0.0000000,-0.0000000,-0.0100000,0.9980000,0.10000,4.40000,-10.60000
24.957277,-0.0000000,-0.0000000,0.0000000,0.0020000,-0.0090000,0.9950000,0.20000,4.40000,-10.50000
25.011728,0.1220000,0.1830000,0.0000000,0.0020000,-0.0090000,0.9910000,0.00000,4.40000,-10.70000
25.056520,-0.1830000,-0.0610000,0.0000000,-0.0000000,-0.0090000,0.9870000,0.00000,4.50000,-10.50000
25.114375,0.0610000,0.0610000,0.0000000,0.0000000,-0.0080000,0.9900000,0.00000,4.40000,-10.50000
25.156973,-0.0000000,-0.0000000,0.0000000,0.0010000,-0.0100000,0.9910000,0.00000,4.30000,-10.50000
25.206592,0.0610000,-0.0000000,0.0000000,-0.0000000,-0.0100000,0.9980000,0.10000,4.40000,-10.60000
25.256205,-0.0000000,-0.0000000,0.0000000,-0.0000000,-0.0110000,1.0000000,0.10000,4.30000,-10.60000
25.307278,-0.0000000,-0.0000000,0.0000000,0.0010000,-0.0100000,1.0000000,0.10000,4.30000,-10.50000
25.356474,-0.1220000,-0.0000000,0.0000000,-0.0020000,-0.0090000,0.9970000,0.20000,4.30000,-10.50000
25.406463,3.4180000,1.7700000,0.0610000,-0.0020000,-0.0050000,1.0000000,0.10000,4.40000,-10.50000
25.456815,-2.0140000,-0.5490000,0.6710000,-0.0020000,-0.0140000,1.0020000,0.00000,4.50000,-10.60000
25.506061,0.1830000,0.9770000,0.5490000,0.0070000,0.0210000,1.0000000,0.00000,4.40000,-10.70000
25.556175,0.3660000,1.4040000,2.0140000,-0.0050000,0.0110000,1.0000000,0.20000,4.50000,-10.60000
25.605833,0.7930000,1.0380000,-0.0610000,-0.0020000,-0.0120000,0.9950000,0.00000,4.40000,-10.60000
25.655880,-13.3670000,27.8320000,-10.2540000,-0.0050000,-0.0300000,1.0000000,0.20000,4.40000,-10.60000
25.705656,2.8690000,7.0800000,1.9530000,-0.0390000,-0.0070000,0.9820000,0.20000,4.40000,-10.60000
25.755727,-8.2400000,26.1840000,2.3800000,-0.0340000,-0.0330000,1.0200000,0.20000,4.50000,-10.50000
25.805701,0.6100000,18.2500000,-4.6390000,-0.0620000,0.0150000,0.9760000,0.50000,4.40000,-10.60000
25.855490,-2.1970000,59.1430000,4.7000000,-0.0950000,-0.0080000,1.0030000,0.90000,4.30000,-10.50000
25.905203,10.2540000,61.7070000,-8.8500000,-0.1330000,0.0030000,1.0180000,1.20000,4.40000,-10.40000
25.955145,1.0380000,105.4690000,-0.6100000,-0.2000000,-0.0030000,0.9710000,1.80000,4.30000,-10.30000
26.004955,-1.2210000,79.5900000,0.0000000,-0.2260000,-0.0300000,0.9190000,2.40000,4.40000,-10.30000
26.055057,-10.5590000,108.8870000,25.8180000,-0.3330000,-0.0100000,0.9800000,3.20000,4.40000,-10.00000
26.106855,-4.9440000,103.8210000,-3.9060000,-0.4270000,-0.0100000,0.9060000,3.90000,4.30000,-9.70000
26.155028,-4.7610000,141.6630000,14.8320000,-0.4590000,-0.0150000,0.8300000,4.80000,4.40000,-9.30000
26.204789,4.4560000,108.2150000,16.2350000,-0.5570000,0.0000000,0.7650000,5.70000,4.20000,-8.80000
26.254806,1.3430000,152.5270000,3.0520000,-0.7080000,0.0430000,0.6860000,6.60000,4.10000,-8.00000
26.304585,-0.6710000,134.8270000,-6.0420000,-0.7680000,0.0360000,0.5430000,7.40000,4.10000,-7.30000
26.354570,-7.2630000,130.9810000,4.3950000,-0.9410000,-0.0420000,0.4650000,8.20000,3.90000,-6.40000
26.404341,0.5490000,103.6380000,0.5490000,-0.9500000,0.0310000,0.4800000,8.80000,3.80000,-5.50000
26.456622,-26.9170000,114.0140000,-5.1880000,-0.9780000,-0.0480000,0.2940000,9.30000,3.80000,-4.30000
26.503924,7.5070000,81.4820000,-4.2720000,-0.9830000,0.0250000,0.2630000,9.70000,3.90000,-3.60000
26.554363,-10.8640000,77.9420000,-11.5970000,-0.9800000,-0.0030000,0.1860000,10.00000,4.00000,-3.00000
26.603590,-6.5920000,71.7160000,0.6710000,-0.9850000,-0.0730000,0.1070000,10.00000,4.10000,-2.20000
26.655430,2.1970000,51.7580000,1.7700000,-0.9890000,0.0160000,0.0930000,10.10000,4.10000,-1.50000
26.703740,-1.0380000,45.4710000,-1.5870000,-1.0140000,-0.0150000,0.0400000,10.20000,4.10000,-1.10000
26.754221,8.9720000,21.9120000,4.2110000,-1.0210000,-0.0250000,-0.0210000,10.20000,4.10000,-0.80000
26.803510,9.0330000,9.0940000,-3.9060000,-1.0310000,-0.0160000,-0.0240000,10.30000,4.00000,-0.40000
26.855483,1.1600000,0.1220000,6.7750000,-1.0180000,-0.0070000,0.0050000,10.30000,4.00000,-0.40000
26.903352,2.4410000,-1.4650000,0.9770000,-1.0180000,-0.0100000,-0.0080000,10.40000,4.00000,-0.40000
26.960587,5.4930000,-9.3990000,-2.2580000,-1.0050000,-0.0120000,0.0090000,10.40000,4.10000,-0.50000
27.006278,-0.6710000,-2.3800000,-2.5630000,-1.0040000,-0.0100000,0.0230000,10.20000,4.00000,-0.50000
27.059851,5.9810000,-5.4320000,2.8690000,-1.0000000,-0.0040000,0.0420000,10.30000,4.00000,-0.50000
27.102491,0.2440000,4.5170000,1.4040000,-1.0030000,0.0090000,0.0260000,10.20000,4.00000,-0.80000
27.152331,0.9160000,-1.0990000,0.0000000,-1.0150000,-0.0150000,0.0060000,10.20000,4.00000,-0.80000
27.203522,7.4460000,0.9770000,2.6860000,-0.9990000,0.0020000,0.0310000,10.30000,4.00000,-0.60000
27.252630,-0.3660000,-0.0000000,-0.9160000,-1.0160000,-0.0110000,0.0080000,10.30000,3.90000,-0.70000
27.305138,-1.2210000,-1.2210000,3.1740000,-1.0020000,-0.0020000,0.0230000,10.20000,4.00000,-0.60000
27.351847,-0.8540000,-0.9770000,0.2440000,-1.0140000,0.0010000,0.0160000,10.30000,4.00000,-0.60000
27.401921,-0.1220000,0.3050000,-0.5490000,-1.0050000,-0.0100000,0.0220000,10.30000,3.90000,-0.70000
27.451783,-0.2440000,1.1600000,2.4410000,-1.0120000,-0.0030000,0.0150000,10.20000,4.00000,-0.60000
27.501799,-0.1830000,3.9060000,-2.3800000,-1.0100000,0.0070000,0.0120000,10.30000,4.10000,-0.60000
27.551296,-2.1360000,-1.5870000,-1.4040000,-1.0060000,-0.0000000,0.0060000,10.30000,4.00000,-0.60000
27.602443,0.1830000,3.2350000,-3.4180000,-1.0020000,-0.0060000,0.0220000,10.30000,4.20000,-0.70000
27.651556,-1.9530000,7.0190000,-0.4880000,-1.0090000,-0.0030000,0.0040000,10.30000,4.00000,-0.60000
27.701611,1.6480000,0.1220000,-4.1500000,-1.0050000,-0.0180000,0.0080000,10.10000,4.00000,-0.60000
27.753077,-0.4270000,4.3950000,-0.7930000,-1.0080000,-0.0040000,0.0090000,10.10000,4.00000,-0.60000
27.801160,-0.7320000,1.8310000,-3.1740000,-1.0090000,-0.0180000,-0.0050000,10.30000,4.00000,-0.40000
27.851391,-0.5490000,-2.3800000,-0.9160000,-1.0110000,-0.0170000,-0.0040000,10.30000,4.00000,-0.40000
27.901880,-1.2820000,-0.4270000,0.6100000,-1.0120000,-0.0210000,0.0010000,10.30000,4.10000,-0.40000
27.950582,0.2440000,-1.8920000,-0.4270000,-1.0080000,-0.0170000,-0.0000000,10.30000,4.10000,-0.50000
28.000438,-1.0380000,-1.2210000,0.8540000,-1.0050000,-0.0140000,0.0060000,10.20000,4.10000,-0.50000
28.050313,-0.7930000,0.3660000,1.8920000,-1.0110000,-0.0240000,-0.0010000,10.20000,4.10000,-0.50000
28.100354,-0.8540000,0.4880000,-2.8080000,-1.0070000,-0.0070000,0.0110000,10.40000,4.10000,-0.40000
28.150039,-0.8540000,-2.1970000,0.2440000,-1.0060000,-0.0200000,0.0050000,10.40000,4.00000,-0.50000
28.200413,-1.8310000,0.6710000,1.0380000,-0.9980000,-0.0030000,0.0200000,10.20000,3.90000,-0.50000
28.251060,-3.6620000,2.3800000,-5.6150000,-1.0060000,0.0060000,0.0170000,10.30000,4.00000,-0.50000
28.305918,-2.0750000,-4.3330000,3.7840000,-1.0100000,-0.0220000,0.0080000,10.30000,4.00000,-0.30000
28.349620,-0.1830000,-6.4090000,0.9160000,-1.0060000,-0.0200000,0.0130000,10.20000,4.10000,-0.50000
28.399414,-2.6250000,-0.6100000,-1.4650000,-1.0020000,-0.0180000,0.0220000,10.10000,4.00000,-0.60000
28.449341,0.1220000,0.4880000,-3.3570000,-1.0050000,-0.0290000,0.0140000,10.10000,4.00000,-0.40000
28.499361,0.5490000,2.7470000,0.6710000,-1.0140000,-0.0220000,0.0020000,10.20000,4.10000,-0.50000
28.549388,0.4270000,-1.8920000,-0.6710000,-1.0060000,-0.0270000,0.0160000,10.30000,4.10000,-0.50000
28.599277,0.2440000,3.3570000,0.7320000,-1.0060000,-0.0280000,0.0170000,10.20000,4.10000,-0.50000
28.649393,1.1600000,2.5630000,0.6710000,-1.0110000,-0.0180000,0.0050000,10.10000,4.10000,-0.50000
28.698736,0.3050000,3.8450000,1.5260000,-1.0050000,-0.0250000,0.0110000,10.10000,4.20000,-0.50000
28.748746,0.9770000,1.8920000,-0.6100000,-1.0140000,-0.0160000,-0.0070000,10.30000,4.30000,-0.60000
28.800846,0.4880000,-2.3190000,-1.0990000,-1.0080000,-0.0240000,0.0060000,10.30000,4.20000,-0.60000
28.850593,-0.0000000,-1.8920000,0.3050000,-1.0150000,-0.0190000,0.0020000,10.30000,4.20000,-0.50000
28.903180,0.3050000,-4.0280000,1.8310000,-0.9990000,-0.0220000,0.0350000,10.30000,4.10000,-0.40000
28.948095,1.8310000,6.4700000,-0.3050000,-1.0040000,-0.0160000,0.0230000,10.40000,4.20000,-0.40000
29.008229,-0.1830000,-0.8540000,-9.2770000,-1.0240000,-0.0130000,-0.0170000,10.20000,4.20000,-0.50000
29.048161,-0.3660000,-6.9580000,-3.7230000,-1.0000000,-0.0460000,0.0240000,10.30000,4.10000,-0.60000
29.098431,-0.0000000,-0.3050000,0.2440000,-1.0120000,-0.0290000,0.0000000,10.30000,4.20000,-0.60000
29.147565,1.3430000,-3.5400000,2.5630000,-1.0050000,-0.0290000,0.0200000,10.20000,4.10000,-0.60000
29.210653,-0.1830000,1.7090000,0.7930000,-1.0080000,-0.0200000,0.0180000,10.10000,4.20000,-0.70000
29.247637,-1.0990000,1.2820000,-4.7610000,-1.0100000,-0.0290000,0.0100000,10.00000,4.20000,-0.70000
29.297413,-0.2440000,-3.6010000,0.0000000,-1.0050000,-0.0330000,0.0230000,10.20000,4.20000,-0.70000
29.347355,0.8540000,2.2580000,0.3660000,-1.0070000,-0.0300000,0.0220000,10.20000,4.20000,-0.50000
29.396972,-0.1830000,-1.0990000,-0.3660000,-1.0110000,-0.0340000,0.0030000,10.10000,4.20000,-0.50000
29.447072,-0.2440000,-2.1970000,-0.2440000,-1.0050000,-0.0270000,0.0210000,10.20000,4.30000,-0.60000
29.496728,0.0610000,1.4040000,-0.6710000,-1.0080000,-0.0310000,0.0190000,10.20000,4.30000,-0.60000
29.546601,-0.4270000,-0.8540000,0.4270000,-1.0110000,-0.0290000,0.0100000,10.30000,4.20000,-0.50000
29.596824,0.9160000,0.9770000,-0.5490000,-1.0060000,-0.0310000,0.0230000,10.30000,4.20000,-0.60000
29.646330,-0.1830000,2.5630000,0.1830000,-1.0080000,-0.0300000,0.0110000,10.30000,4.20000,-0.40000
29.696088,-0.4270000,-0.8540000,-0.9160000,-1.0100000,-0.0330000,0.0110000,10.20000,4.30000,-0.40000
29.746091,0.3660000,1.7090000,1.7700000,-1.0020000,-0.0340000,0.0160000,10.30000,4.00000,-0.50000
29.797201,0.3050000,1.5870000,-0.1830000,-1.0090000,-0.0260000,0.0170000,10.30000,4.00000,-0.40000
29.846067,0.5490000,-0.9770000,-0.5490000,-1.0080000,-0.0280000,0.0100000,10.20000,4.00000,-0.60000
29.895815,-1.0380000,0.5490000,-0.3050000,-1.0050000,-0.0300000,0.0180000,10.20000,4.20000,-0.40000
29.949121,-0.3660000,-0.9770000,-1.1600000,-1.0070000,-0.0350000,0.0100000,10.30000,4.30000,-0.50000
29.995398,-0.2440000,-1.7090000,-0.2440000,-1.0050000,-0.0340000,0.0130000,10.10000,4.40000,-0.60000
30.045369,0.2440000,0.6100000,-0.9770000,-1.0040000,-0.0370000,0.0150000,10.30000,4.40000,-0.40000
30.095702,-0.3660000,1.9530000,1.4040000,-1.0060000,-0.0280000,0.0180000,10.20000,4.30000,-0.50000
30.145108,0.3660000,0.9770000,0.1830000,-1.0080000,-0.0340000,0.0160000,10.30000,4.20000,-0.40000
30.194780,0.1830000,0.6710000,-0.0610000,-1.0110000,-0.0210000,0.0120000,10.10000,4.20000,-0.50000
30.244782,-0.1220000,-0.8540000,-3.2350000,-1.0070000,-0.0340000,0.0100000,10.00000,4.10000,-0.50000
30.294921,-0.6710000,-2.0140000,0.2440000,-1.0090000,-0.0400000,0.0110000,10.10000,4.20000,-0.60000
30.344636,-1.0990000,-0.0000000,-0.5490000,-1.0090000,-0.0400000,0.0020000,10.30000,4.00000,-0.40000
30.394612,-0.3050000,-2.4410000,1.0990000,-1.0040000,-0.0320000,0.0190000,10.30000,4.20000,-0.50000
30.444515,-0.2440000,2.6250000,0.1830000,-1.0070000,-0.0360000,0.0130000,10.30000,4.20000,-0.50000
30.495653,-0.4270000,-0.9770000,0.9160000,-1.0110000,-0.0360000,0.0030000,10.20000,4.20000,-0.60000
30.546393,0.1220000,1.6480000,0.0000000,-1.0070000,-0.0320000,0.0110000,10.20000,4.20000,-0.60000
30.593819,-0.0000000,0.3660000,0.7930000,-1.0050000,-0.0330000,0.0110000,10.20000,4.20000,-0.40000
30.644806,-0.1220000,0.9770000,-0.5490000,-1.0050000,-0.0300000,0.0120000,10.20000,4.20000,-0.50000
30.696777,-0.1220000,1.8920000,0.1220000,-1.0070000,-0.0370000,0.0080000,10.30000,4.30000,-0.40000
30.745301,0.1830000,-0.0610000,-1.5870000,-1.0080000,-0.0280000,0.0160000,10.40000,4.40000,-0.40000
30.793818,-0.5490000,0.7320000,-0.1220000,-1.0090000,-0.0380000,0.0030000,10.20000,4.30000,-0.30000
30.848651,0.0610000,-1.0380000,0.1830000,-1.0060000,-0.0330000,0.0140000,10.10000,4.30000,-0.30000
30.893301,0.0610000,1.7090000,-0.1220000,-1.0100000,-0.0320000,0.0070000,10.20000,4.20000,-0.50000
30.946137,-0.2440000,2.1360000,1.4650000,-1.0030000,-0.0360000,0.0130000,10.30000,4.20000,-0.50000
30.995528,0.1220000,-0.0000000,-0.1830000,-1.0100000,-0.0280000,0.0020000,10.20000,4.20000,-0.50000
31.044278,-0.1830000,0.9160000,-0.0610000,-1.0040000,-0.0350000,0.0130000,10.30000,4.20000,-0.50000
31.092632,0.0610000,1.4650000,0.3050000,-1.0100000,-0.0290000,0.0050000,10.10000,4.20000,-0.50000
31.145633,-0.1220000,0.7930000,0.4880000,-1.0080000,-0.0350000,0.0070000,10.20000,4.30000,-0.50000
31.192639,-0.1830000,0.4880000,0.0000000,-1.0060000,-0.0270000,0.0130000,10.10000,4.20000,-0.60000
31.242645,-0.0610000,-0.8540000,-0.3660000,-1.0070000,-0.0370000,0.0090000,10.20000,4.20000,-0.60000
31.292381,-0.0000000,2.1970000,-0.7320000,-1.0090000,-0.0280000,0.0080000,10.20000,4.30000,-0.50000
31.342016,-0.5490000,0.3050000,0.7930000,-1.0090000,-0.0350000,0.0020000,10.20000,4.20000,-0.50000
31.392121,0.3660000,-0.4880000,-0.9770000,-1.0080000,-0.0350000,0.0060000,10.10000,4.20000,-0.40000
31.441748,-0.3660000,0.7930000,0.6100000,-1.0060000,-0.0340000,0.0040000,10.20000,4.20000,-0.40000
31.493187,-0.2440000,-1.5870000,0.2440000,-1.0070000,-0.0310000,0.0070000,10.20000,4.30000,-0.40000
31.542124,-0.3050000,1.1600000,0.4270000,-1.0060000,-0.0340000,0.0090000,10.20000,4.20000,-0.30000
31.591492,-0.1220000,-0.9770000,0.3660000,-1.0060000,-0.0320000,0.0080000,10.20000,4.10000,-0.30000
31.641088,-0.0000000,1.2820000,0.9160000,-1.0060000,-0.0330000,0.0070000,10.30000,4.10000,-0.30000
31.693561,0.1220000,-0.3660000,0.4880000,-1.0130000,-0.0290000,0.0020000,10.30000,4.10000,-0.40000
31.742200,-0.1830000,-0.0000000,0.4270000,-1.0050000,-0.0350000,0.0080000,10.20000,4.10000,-0.60000
31.791173,0.3660000,-0.2440000,0.0610000,-1.0070000,-0.0370000,0.0040000,10.10000,4.10000,-0.50000
31.840860,-0.1830000,0.1830000,0.0000000,-1.0090000,-0.0260000,0.0090000,10.30000,4.20000,-0.50000
31.891041,0.1220000,1.2210000,-1.1600000,-1.0050000,-0.0370000,0.0070000,10.30000,4.20000,-0.40000
31.940652,-0.1220000,-0.0610000,1.7090000,-1.0110000,-0.0320000,-0.0030000,10.20000,4.10000,-0.50000
31.990620,-0.0000000,0.7320000,-0.8540000,-1.0080000,-0.0350000,0.0050000,10.30000,4.30000,-0.30000
32.040506,-0.0610000,0.0610000,0.9160000,-1.0070000,-0.0330000,0.0030000,10.20000,4.20000,-0.40000
32.090290,-0.0610000,-0.0610000,-0.3050000,-1.0080000,-0.0290000,0.0100000,10.00000,4.00000,-0.40000
32.141189,-0.1220000,2.0140000,-0.2440000,-1.0080000,-0.0360000,0.0010000,10.20000,4.10000,-0.30000
32.190563,-0.1830000,0.8540000,-1.0990000,-1.0050000,-0.0300000,0.0090000,10.20000,4.10000,-0.40000
32.239861,-0.4880000,0.9160000,0.2440000,-1.0070000,-0.0360000,0.0020000,10.20000,4.20000,-0.40000
32.290001,-0.6710000,-1.4040000,1.3430000,-1.0090000,-0.0280000,0.0020000,10.30000,4.20000,-0.30000
32.339677,-0.0610000,0.5490000,-0.6710000,-1.0050000,-0.0310000,0.0110000,10.30000,4.10000,-0.30000
32.389522,-0.0610000,-0.7320000,0.8540000,-1.0070000,-0.0280000,0.0100000,10.20000,4.00000,-0.30000
32.439337,0.0610000,1.5870000,-0.4270000,-1.0100000,-0.0290000,0.0060000,10.30000,4.10000,-0.40000
32.492563,-0.1830000,-1.1600000,0.0610000,-1.0090000,-0.0310000,0.0030000,10.30000,4.20000,-0.30000
32.539329,-0.1220000,0.3660000,-0.3660000,-1.0030000,-0.0310000,0.0110000,10.30000,4.20000,-0.30000
32.590225,-0.3660000,-1.1600000,-0.3660000,-1.0100000,-0.0300000,0.0020000,10.30000,4.10000,-0.30000
32.638828,-0.7320000,0.7320000,0.0000000,-1.0060000,-0.0320000,0.0110000,10.40000,4.20000,-0.20000
32.691871,-0.3050000,-0.0000000,-0.1220000,-1.0140000,-0.0310000,-0.0040000,10.30000,4.30000,-0.40000
32.738692,-0.6100000,-1.4040000,-1.6480000,-1.0040000,-0.0320000,0.0120000,10.20000,4.20000,-0.30000
32.794452,-2.0750000,-7.2630000,-0.1220000,-1.0100000,-0.0320000,0.0000000,10.20000,4.20000,-0.20000
32.838669,-2.4410000,-11.4140000,0.0610000,-1.0120000,-0.0330000,0.0100000,10.20000,4.10000,-0.30000
32.897902,-0.4270000,-9.3380000,0.3660000,-1.0020000,-0.0370000,0.0360000,10.20000,4.10000,-0.50000
32.938428,-1.7700000,2.6860000,-0.3660000,-1.0060000,-0.0240000,0.0340000,10.30000,4.20000,-0.40000
32.988185,-4.3950000,-9.7050000,4.3950000,-1.0130000,-0.0340000,0.0140000,10.30000,4.20000,-0.50000
33.038066,-5.5540000,-11.9020000,2.5020000,-1.0180000,-0.0270000,0.0240000,10.20000,4.10000,-0.60000
33.087698,-2.3190000,-16.6630000,0.1220000,-1.0090000,-0.0220000,0.0440000,10.30000,4.10000,-0.70000
33.137633,-4.4560000,-21.6060000,-3.2350000,-1.0080000,-0.0210000,0.0580000,10.30000,4.20000,-0.80000
33.187506,-0.1830000,-41.9310000,3.1130000,-1.0050000,-0.0410000,0.0850000,10.30000,4.20000,-1.10000
33.239522,1.4650000,-51.0250000,-1.9530000,-1.0030000,-0.0200000,0.1180000,10.40000,4.30000,-1.30000
33.287369,-2.8080000,-59.5090000,-8.8500000,-0.9800000,-0.0060000,0.1980000,10.20000,4.20000,-1.90000
33.340504,2.3190000,-63.9040000,-1.5870000,-0.9830000,-0.0650000,0.2150000,10.00000,4.20000,-2.20000
33.386959,1.4650000,-69.5800000,1.2210000,-0.9590000,-0.0420000,0.2910000,9.80000,4.40000,-3.00000
33.437017,-0.3660000,-72.2660000,7.9960000,-0.9410000,-0.0480000,0.3500000,9.60000,4.30000,-3.50000
33.486678,2.7470000,-87.4020000,12.0850000,-0.9340000,-0.0180000,0.3780000,9.60000,4.30000,-4.00000
33.536777,5.6760000,-113.4030000,5.4320000,-0.8880000,-0.0130000,0.4440000,9.20000,4.10000,-5.00000
33.586594,2.6860000,-136.2920000,7.2020000,-0.8310000,-0.0070000,0.5190000,8.70000,4.10000,-5.90000
33.636475,4.3330000,-134.3380000,12.8170000,-0.7180000,0.0010000,0.6680000,8.00000,4.00000,-6.80000
33.688187,2.9300000,-133.7280000,13.4890000,-0.6470000,0.0190000,0.7400000,7.20000,4.00000,-7.70000
33.736299,-1.2210000,-116.1500000,7.6290000,-0.5550000,0.0270000,0.8430000,6.50000,4.10000,-8.40000
33.786188,0.6100000,-112.7320000,1.6480000,-0.5050000,0.0060000,0.8590000,5.80000,4.10000,-8.90000
33.837085,-6.9580000,-99.2430000,-8.3010000,-0.3640000,0.0270000,0.9450000,5.00000,4.20000,-9.30000
33.885845,-10.1320000,-110.7790000,-9.9490000,-0.3180000,-0.0150000,0.9270000,4.10000,4.20000,-9.70000
33.935730,-14.0990000,-82.8860000,8.8500000,-0.2250000,-0.0200000,1.0050000,3.00000,4.30000,-9.90000
33.985435,-5.4930000,-74.1580000,-0.2440000,-0.1860000,-0.0100000,0.9880000,2.40000,4.30000,-10.20000
34.035549,3.9670000,-50.1710000,-0.1830000,-0.1500000,0.0250000,0.9400000,2.00000,4.30000,-10.30000
34.085145,1.7700000,-101.2570000,0.7930000,-0.0950000,-0.0350000,0.9330000,1.40000,4.30000,-10.40000
34.135338,1.0380000,-15.3810000,14.2210000,0.1080000,0.0420000,1.1560000,1.00000,4.30000,-10.40000
34.184826,0.7930000,-0.4270000,-0.1830000,-0.0100000,-0.0060000,0.9850000,0.80000,4.20000,-10.40000
34.234767,-0.1220000,-0.0610000,0.1220000,-0.0070000,-0.0030000,0.9950000,0.70000,4.20000,-10.50000
34.284845,-0.6710000,-0.1830000,-0.0610000,-0.0050000,-0.0070000,0.9950000,0.70000,4.30000,-10.50000
34.335710,-0.1220000,-0.0000000,0.1830000,-0.0030000,-0.0070000,0.9970000,0.70000,4.20000,-10.50000
34.384344,0.2440000,0.1220000,0.0000000,-0.0040000,-0.0060000,0.9950000,0.70000,4.30000,-10.60000
34.437022,-0.3050000,-0.1220000,0.1220000,-0.0030000,-0.0070000,0.9970000,0.70000,4.30000,-10.50000
34.485005,0.3050000,0.1830000,0.0000000,-0.0010000,-0.0090000,0.9960000,0.70000,4.30000,-10.70000
34.535595,0.0610000,0.3660000,-0.2440000,-0.0050000,-0.0060000,0.9960000,0.70000,4.30000,-10.50000
34.583756,-0.0000000,-0.3660000,0.0610000,-0.0090000,-0.0070000,0.9960000,0.60000,4.40000,-10.50000
34.639837,0.1220000,-0.0000000,0.0610000,-0.0000000,-0.0160000,1.0180000,0.60000,4.40000,-10.50000
34.683463,0.4270000,0.1830000,-0.1830000,-0.0050000,-0.0060000,1.0150000,0.70000,4.40000,-10.60000
34.743469,-0.9160000,-0.0000000,-0.1830000,-0.0060000,-0.0070000,1.0130000,0.60000,4.30000,-10.60000
34.783427,-0.7320000,-0.1220000,0.0000000,-0.0050000,-0.0150000,1.0010000,0.50000,4.30000,-10.40000
34.833079,-0.7930000,-0.1830000,0.0000000,-0.0050000,-0.0090000,0.9920000,0.50000,4.30000,-10.60000
34.883090,-1.4650000,-0.6100000,0.0610000,0.0030000,-0.0210000,0.9880000,0.50000,4.30000,-10.60000
34.933096,-0.0610000,-0.1220000,0.0000000,-0.0030000,-0.0100000,0.9930000,0.60000,4.40000,-10.60000
34.985455,0.2440000,-0.1220000,0.0610000,-0.0020000,-0.0100000,0.9960000,0.60000,4.30000,-10.50000
35.032492,0.0610000,-0.0000000,0.0000000,-0.0030000,-0.0090000,0.9960000,0.70000,4.30000,-10.50000
35.082450,0.1830000,-0.0000000,0.0000000,-0.0000000,-0.0100000,0.9970000,0.60000,4.30000,-10.40000
35.132381,-0.0000000,-0.0000000,0.0000000,-0.0030000,-0.0100000,0.9960000,0.60000,4.30000,-10.50000
35.182120,-0.0000000,-0.0000000,0.0000000,-0.0050000,-0.0100000,0.9970000,0.60000,4.30000,-10.50000
35.233430,-0.0000000,-0.0000000,0.0000000,-0.0020000,-0.0090000,0.9980000,0.70000,4.40000,-10.70000
35.282267,-0.0610000,-0.0000000,0.0000000,-0.0030000,-0.0090000,0.9970000,0.70000,4.30000,-10.50000
35.332027,-0.0000000,-0.0000000,0.0000000,-0.0030000,-0.0100000,0.9970000,0.70000,4.30000,-10.60000
35.381638,-0.0610000,-0.0000000,0.0000000,-0.0010000,-0.0100000,0.9960000,0.70000,4.20000,-10.40000
35.433402,-0.0000000,-0.0000000,0.0610000,-0.0050000,-0.0090000,0.9950000,0.60000,4.30000,-10.60000
35.481437,-0.0000000,-0.0000000,0.0000000,-0.0010000,-0.0080000,0.9970000,0.70000,4.10000,-10.50000
35.531403,-0.0000000,-0.0000000,0.0000000,-0.0000000,-0.0110000,0.9980000,0.60000,4.20000,-10.50000
35.581140,-0.0000000,-0.0000000,0.0000000,-0.0040000,-0.0080000,1.0000000,0.60000,4.30000,-10.60000
35.630926,-0.0000000,-0.0000000,0.0000000,-0.0030000,-0.0090000,0.9970000,0.60000,4.30000,-10.50000
35.722456,-0.0000000,0.0610000,0.0000000,-0.0010000,-0.0100000,0.9970000,0.70000,4.30000,-10.50000
35.730780,-0.0000000,-0.0000000,0.0000000,-0.0040000,-0.0080000,0.9970000,0.60000,4.40000,-10.50000
35.780902,-0.0000000,-0.0000000,0.0000000,-0.0030000,-0.0070000,0.9950000,0.80000,4.50000,-10.40000
35.830692,-0.0000000,-0.0000000,0.0610000,-0.0000000,-0.0100000,0.9960000,0.60000,4.40000,-10.60000
35.880443,-0.0000000,-0.0000000,0.0000000,-0.0030000,-0.0080000,0.9980000,0.60000,4.40000,-10.50000
35.930161,-0.0000000,-0.0000000,0.0000000,-0.0020000,-0.0080000,0.9990000,0.50000,4.40000,-10.60000
35.981300,-0.0000000,-0.0000000,0.0000000,-0.0010000,-0.0100000,0.9990000,0.50000,4.40000,-10.50000
36.030099,-0.0000000,-0.0000000,0.1220000,-0.0030000,-0.0090000,0.9990000,0.50000,4.40000,-10.60000
36.082833,-0.0000000,-0.0000000,0.0000000,-0.0020000,-0.0090000,0.9970000,0.60000,4.30000,-10.60000
36.129741,-0.0000000,-0.0000000,0.0000000,-0.0020000,-0.0100000,0.9980000,0.70000,4.30000,-10.50000
36.184218,-0.0000000,-0.0000000,0.0000000,-0.0020000,-0.0090000,0.9950000,0.50000,4.30000,-10.50000
36.229443,-0.0000000,0.0610000,0.0000000,-0.0020000,-0.0090000,0.9970000,0.50000,4.30000,-10.60000
36.279550,-0.0000000,-0.0000000,0.0000000,-0.0030000,-0.0090000,0.9990000,0.70000,4.40000,-10.60000
36.329519,-0.0000000,-0.0000000,0.0000000,-0.0020000,-0.0090000,0.9970000,0.70000,4.30000,-10.50000
36.380202,-0.0000000,0.0610000,0.0000000,-0.0010000,-0.0100000,0.9980000,0.60000,4.30000,-10.50000
36.429136,-0.0000000,-0.0000000,0.0610000,-0.0020000,-0.0090000,0.9950000,0.60000,4.40000,-10.60000
36.480715,-0.0000000,0.0610000,-0.2440000,-0.0000000,-0.0100000,0.9950000,0.70000,4.40000,-10.50000
36.530770,0.2440000,-0.0000000,0.0000000,0.0000000,-0.0060000,0.9990000,0.60000,4.40000,-10.50000
36.584048,-0.0000000,-0.0000000,0.1220000,0.0000000,-0.0100000,1.0000000,0.40000,4.50000,-10.60000
36.630996,-0.0000000,0.0610000,0.0610000,-0.0030000,-0.0100000,0.9980000,0.50000,4.30000,-10.40000
36.685508,-0.1830000,0.0610000,-0.0610000,-0.0000000,-0.0120000,0.9970000,0.50000,4.40000,-10.50000
36.728584,0.1830000,-0.0610000,0.0000000,-0.0010000,-0.0110000,0.9850000,0.70000,4.20000,-10.40000
36.778207,-0.0000000,0.0610000,0.0000000,-0.0030000,-0.0090000,0.9960000,0.70000,4.30000,-10.60000
36.834796,-0.0000000,-0.0000000,0.0000000,-0.0030000,-0.0090000,0.9970000,0.70000,4.40000,-10.50000
36.878255,-0.0000000,-0.0000000,0.0000000,-0.0000000,-0.0110000,0.9990000,0.70000,4.40000,-10.20000
36.927710,-0.0000000,-0.0000000,0.0000000,-0.0040000,-0.0090000,0.9940000,0.60000,4.40000,-10.40000
36.977623,-0.0000000,-0.0000000,0.0000000,-0.0030000,-0.0090000,0.9980000,0.60000,4.30000,-10.50000
37.027650,0.1220000,0.0610000,0.0000000,-0.0020000,-0.0110000,0.9970000,0.60000,4.40000,-10.40000
37.079790,-0.0000000,-0.0000000,0.0000000,-0.0030000,-0.0100000,0.9960000,0.50000,4.40000,-10.50000
37.127218,0.0610000,-0.0000000,0.0000000,-0.0030000,-0.0090000,0.9970000,0.50000,4.50000,-10.50000
37.177037,-0.0000000,-0.0000000,0.0000000,-0.0020000,-0.0110000,0.9970000,0.60000,4.30000,-10.50000
37.232628,-0.0000000,0.0610000,0.0000000,-0.0010000,-0.0090000,0.9980000,0.40000,4.30000,-10.50000
37.277065,-0.0000000,0.0610000,0.0000000,-0.0030000,-0.0100000,0.9980000,0.60000,4.40000,-10.40000
37.327199,-0.0000000,-0.0000000,0.0000000,-0.0010000,-0.0110000,0.9970000,0.70000,4.30000,-10.40000
37.377157,-0.0000000,-0.0000000,-0.0610000,-0.0010000,-0.0100000,0.9950000,0.50000,4.30000,-10.40000
37.427024,0.0610000,-0.0000000,0.0000000,-0.0030000,-0.0090000,0.9960000,0.60000,4.30000,-10.40000
37.476613,-0.0000000,-0.0000000,0.0000000,-0.0020000,-0.0100000,0.9960000,0.60000,4.30000,-10.50000
37.530370,0.0610000,-0.0000000,0.0000000,-0.0020000,-0.0100000,0.9980000,0.70000,4.50000,-10.50000
37.575887,-0.0000000,-0.0000000,0.0000000,-0.0010000,-0.0110000,0.9990000,0.50000,4.30000,-10.40000
37.627189,-0.0000000,-0.0000000,0.0000000,-0.0040000,-0.0100000,0.9990000,0.60000,4.40000,-10.40000
37.675712,-0.0000000,-0.0000000,0.0000000,-0.0020000,-0.0100000,0.9970000,0.70000,4.30000,-10.50000
37.725385,-0.1220000,0.0610000,0.0000000,-0.0000000,-0.0100000,0.9950000,0.70000,4.40000,-10.40000
37.775826,-0.6710000,0.3050000,5.6150000,-0.0580000,-0.0030000,1.0000000,0.60000,4.30000,-10.40000
37.827018,3.4180000,0.6710000,-0.1220000,0.0030000,-0.0350000,0.9930000,0.50000,4.20000,-10.50000
37.875445,0.3050000,0.0610000,0.0000000,-0.0010000,-0.0080000,0.9970000,0.70000,4.30000,-10.60000
37.927934,-0.0000000,0.0610000,0.0000000,-0.0020000,-0.0090000,0.9990000,0.60000,4.20000,-10.40000
37.975146,-0.0000000,-0.0000000,0.0000000,-0.0030000,-0.0090000,0.9960000,0.60000,4.30000,-10.60000
38.024880,-0.0000000,-0.0000000,0.0000000,-0.0010000,-0.0100000,0.9980000,0.70000,4.30000,-10.40000
38.074811,0.0610000,-0.0000000,0.0000000,-0.0010000,-0.0090000,0.9980000,0.60000,4.30000,-10.50000
38.127768,0.0610000,0.0610000,0.0000000,-0.0010000,-0.0090000,1.0000000,0.60000,4.30000,-10.50000
38.174646,0.0610000,-0.0000000,0.0000000,-0.0020000,-0.0090000,0.9980000,0.60000,4.30000,-10.40000
38.225571,-0.0000000,-0.0000000,0.0610000,-0.0020000,-0.0090000,0.9960000,0.60000,4.30000,-10.50000
38.274910,-0.0000000,-0.0000000,0.0000000,-0.0020000,-0.0080000,0.9960000,0.70000,4.40000,-10.60000
38.324464,-0.0000000,-0.0000000,0.0000000,-0.0020000,-0.0090000,0.9970000,0.70000,4.40000,-10.50000
38.374371,0.0610000,-0.0000000,0.0000000,-0.0020000,-0.0090000,0.9960000,0.60000,4.40000,-10.50000
38.426500,0.0610000,0.0610000,0.0000000,-0.0020000,-0.0100000,0.9960000,0.60000,4.30000,-10.50000
38.473899,0.0610000,-0.0000000,0.0000000,-0.0010000,-0.0090000,1.0000000,0.50000,4.30000,-10.50000
38.525156,0.0610000,-0.0000000,0.0000000,-0.0020000,-0.0090000,0.9990000,0.50000,4.30000,-10.50000
38.573640,-0.0000000,0.0610000,0.0000000,-0.0020000,-0.0100000,0.9960000,0.50000,4.20000,-10.40000
38.631151,0.4270000,-0.0000000,0.0000000,-0.0040000,-0.0090000,0.9960000,0.50000,4.30000,-10.50000
38.673690,2.8080000,0.2440000,0.0000000,-0.0040000,-0.0120000,0.9920000,0.60000,4.20000,-10.50000
38.723262,-0.0610000,0.3050000,9.3990000,0.0220000,-0.0040000,0.9940000,0.60000,4.40000,-10.50000
38.773839,1.1600000,0.9160000,61.2180000,-0.0120000,0.0420000,0.9950000,0.80000,4.30000,-10.60000
38.824375,1.3430000,0.7320000,61.4010000,-0.0080000,0.0040000,0.9940000,0.90000,4.20000,-10.60000
38.873052,1.5870000,0.7320000,57.9220000,0.0110000,-0.0210000,0.9960000,1.00000,4.10000,-10.60000
38.922889,2.3190000,1.3430000,84.2900000,0.0250000,-0.0400000,0.9940000,1.30000,4.10000,-10.50000
38.972981,2.0140000,1.5260000,132.8740000,0.0210000,-0.0160000,0.9940000,1.60000,4.10000,-10.40000
39.022697,1.1600000,0.9160000,77.2710000,-0.0020000,-0.0240000,0.9970000,1.80000,3.80000,-10.40000
39.072720,2.3800000,1.6480000,128.7840000,0.0210000,-0.0230000,0.9970000,2.00000,3.70000,-10.30000
39.123073,1.2820000,0.8540000,68.0540000,-0.0170000,-0.0080000,0.9950000,2.50000,3.40000,-10.50000
39.172520,1.7090000,0.6100000,65.5520000,0.0000000,-0.0060000,0.9990000,2.60000,3.20000,-10.50000
39.222558,2.6860000,2.3800000,169.8000000,0.0070000,0.0180000,1.0000000,3.00000,3.00000,-10.50000
39.272335,1.7700000,1.0990000,96.9240000,-0.0950000,0.0520000,1.0020000,3.40000,2.60000,-10.40000
39.324065,2.3190000,2.5630000,155.1510000,0.0470000,0.0310000,0.9990000,3.50000,2.30000,-10.50000
39.371947,1.9530000,1.0990000,100.2200000,-0.1000000,0.0780000,0.9960000,3.70000,1.90000,-10.50000
39.421980,0.9770000,0.3660000,61.6460000,0.0390000,-0.0350000,0.9970000,4.00000,1.50000,-10.60000
39.472142,0.0610000,0.7930000,75.3780000,-0.0110000,0.0250000,0.9950000,3.90000,1.20000,-10.60000
39.521497,0.6100000,0.7320000,88.2570000,0.0410000,0.0360000,0.9990000,4.00000,0.70000,-10.50000
39.579431,0.6710000,0.4880000,101.6850000,-0.0140000,0.0640000,0.9960000,4.10000,0.60000,-10.40000
39.623283,1.7700000,1.2210000,109.2530000,-0.0920000,-0.0300000,0.9900000,4.10000,0.10000,-10.50000
39.670827,-0.0000000,-0.0000000,40.5270000,-0.0360000,0.0040000,0.9970000,3.90000,0.00000,-10.60000
39.720972,1.5870000,0.6100000,29.8460000,-0.0120000,0.0050000,0.9980000,4.00000,0.00000,-10.70000
39.771052,0.1220000,-0.0610000,-0.0610000,-0.0070000,0.0320000,0.9880000,3.90000,-0.10000,-10.50000
39.820841,0.2440000,0.0610000,0.0610000,-0.0080000,0.0110000,1.0000000,3.90000,-0.20000,-10.60000
39.870696,-0.9770000,-0.0610000,0.0610000,-0.0080000,0.0140000,0.9980000,4.10000,-0.40000,-10.40000
39.920423,0.7930000,0.2440000,12.5730000,-0.0560000,-0.0790000,1.0000000,4.00000,-0.30000,-10.50000
39.970387,-0.2440000,-0.0000000,0.0000000,-0.0080000,0.0140000,0.9960000,4.00000,-0.20000,-10.40000
40.020233,-0.3050000,-0.1220000,-0.2440000,-0.0190000,0.0490000,1.0210000,4.10000,-0.10000,-10.60000
40.070139,1.8310000,1.4650000,-0.1830000,-0.0010000,-0.0060000,0.9710000,4.10000,-0.10000,-10.60000
40.119947,-0.1220000,-0.3660000,0.0000000,-0.0060000,0.0010000,0.9760000,4.10000,-0.20000,-10.50000
40.170635,-0.0610000,-0.0000000,0.0000000,-0.0130000,0.0340000,1.0000000,4.00000,-0.20000,-10.50000
40.219614,0.0610000,0.0610000,0.0000000,-0.0080000,0.0150000,0.9960000,4.20000,-0.20000,-10.60000
40.272756,-0.0000000,-0.0000000,0.0000000,-0.0090000,0.0140000,1.0020000,4.10000,-0.20000,-10.60000
40.319431,-0.0000000,-0.0000000,0.0000000,-0.0090000,0.0130000,0.9970000,4.10000,-0.20000,-10.70000
40.372438,0.1220000,-0.0000000,0.0000000,-0.0080000,0.0130000,0.9970000,3.80000,-0.30000,-10.70000
40.419179,0.3660000,0.3660000,-0.1220000,-0.0070000,0.0130000,0.9890000,3.90000,-0.20000,-10.60000
40.469095,0.1220000,-0.0000000,0.2440000,-0.0080000,0.0110000,1.0330000,4.10000,-0.40000,-10.50000
40.518964,-0.0000000,0.1220000,0.4270000,-0.0090000,0.0170000,1.0030000,4.20000,-0.30000,-10.50000
40.576851,-0.0000000,-0.0000000,-0.0610000,-0.0080000,0.0150000,1.0010000,4.20000,-0.30000,-10.40000
40.618448,0.0610000,-0.0000000,0.0000000,-0.0070000,0.0150000,0.9980000,4.20000,-0.30000,-10.50000
40.668357,-0.0000000,0.0610000,0.0000000,-0.0090000,0.0110000,1.0000000,4.00000,-0.30000,-10.60000
40.718110,-0.0000000,-0.0000000,0.0000000,-0.0090000,0.0130000,0.9990000,4.10000,-0.20000,-10.60000
40.768573,-0.0000000,0.0610000,0.0000000,-0.0090000,0.0130000,0.9970000,4.10000,-0.30000,-10.70000
40.818109,-0.0000000,-0.0000000,0.0000000,-0.0090000,0.0120000,0.9970000,4.10000,-0.10000,-10.50000
40.867938,-0.0000000,0.1220000,0.0000000,-0.0080000,0.0160000,0.9990000,4.10000,-0.20000,-10.60000
40.917979,-0.0000000,0.0610000,0.0000000,-0.0080000,0.0160000,1.0000000,4.10000,-0.10000,-10.60000
40.967702,-0.0000000,0.1220000,0.0000000,-0.0070000,0.0140000,0.9940000,4.00000,-0.20000,-10.50000
41.017665,-0.0000000,0.0610000,0.0000000,-0.0080000,0.0150000,0.9950000,3.90000,-0.20000,-10.40000
41.074869,0.0610000,0.0610000,0.0000000,-0.0090000,0.0140000,0.9970000,4.00000,-0.10000,-10.40000
41.117393,0.0610000,-0.0000000,0.0610000,-0.0090000,0.0140000,0.9950000,4.10000,-0.30000,-10.50000
41.167300,0.0610000,0.0610000,0.0610000,-0.0090000,0.0140000,0.9970000,4.10000,-0.10000,-10.40000
41.216939,-0.0000000,-0.0000000,0.0000000,-0.0100000,0.0130000,0.9960000,4.10000,-0.40000,-10.40000
41.266918,0.0610000,-0.0000000,0.0000000,-0.0080000,0.0170000,0.9980000,4.00000,-0.20000,-10.60000
41.317642,0.0610000,0.0610000,0.0610000,-0.0090000,0.0130000,0.9960000,4.00000,-0.30000,-10.60000
41.368117,0.1220000,-0.0000000,0.0610000,-0.0080000,0.0150000,0.9960000,4.00000,-0.20000,-10.60000
41.416812,-0.0000000,-0.0000000,0.0610000,-0.0090000,0.0150000,0.9990000,4.20000,-0.20000,-10.60000
41.466621,-0.0000000,0.0610000,0.0610000,-0.0110000,0.0130000,0.9980000,4.10000,-0.20000,-10.60000
41.516513,0.0610000,0.0610000,0.0000000,-0.0080000,0.0150000,0.9950000,4.00000,-0.20000,-10.40000
41.566666,0.0610000,-0.0000000,0.0610000,-0.0100000,0.0130000,0.9960000,4.00000,-0.30000,-10.40000
41.616366,0.0610000,0.1220000,0.0610000,-0.0080000,0.0140000,0.9970000,3.90000,-0.20000,-10.50000
41.665797,-0.0000000,-0.0000000,0.0000000,-0.0080000,0.0150000,0.9980000,3.90000,-0.20000,-10.60000
41.715802,-0.0000000,-0.0000000,0.0000000,-0.0090000,0.0130000,0.9970000,3.90000,-0.50000,-10.40000
41.769567,-0.0000000,-0.0000000,0.0610000,-0.0090000,0.0130000,0.9960000,4.00000,-0.40000,-10.60000
41.815588,0.0610000,-0.0000000,0.0000000,-0.0080000,0.0140000,0.9960000,4.10000,-0.30000,-10.50000
41.865302,-0.0000000,-0.0000000,0.0000000,-0.0080000,0.0130000,0.9980000,4.00000,-0.20000,-10.50000
41.915378,-0.0000000,0.0610000,0.0000000,-0.0080000,0.0130000,0.9970000,4.00000,-0.20000,-10.50000
41.965050,-0.0000000,0.0610000,0.0000000,-0.0090000,0.0140000,0.9970000,3.90000,-0.30000,-10.60000
42.015075,-0.0000000,-0.0000000,0.0000000,-0.0080000,0.0130000,0.9970000,3.90000,-0.10000,-10.60000
42.065245,0.0610000,0.0610000,0.0000000,-0.0080000,0.0130000,0.9990000,4.10000,-0.10000,-10.50000
42.115059,-0.0000000,-0.0000000,0.0000000,-0.0090000,0.0130000,0.9980000,4.20000,-0.20000,-10.60000
42.164943,-0.0000000,0.0610000,0.0000000,-0.0070000,0.0140000,0.9950000,4.10000,-0.10000,-10.50000
42.215414,-0.0000000,-0.0000000,0.0000000,-0.0070000,0.0130000,0.9950000,4.10000,-0.10000,-10.40000
42.264452,-0.0000000,-0.0000000,0.0000000,-0.0080000,0.0150000,0.9990000,4.10000,-0.10000,-10.40000
42.320776,0.0610000,0.0610000,0.0000000,-0.0080000,0.0150000,0.9990000,4.10000,-0.20000,-10.60000
42.364175,-0.0000000,-0.0000000,0.0000000,-0.0080000,0.0140000,0.9980000,4.00000,-0.30000,-10.60000
42.422202,-0.0000000,0.0610000,0.0000000,-0.0080000,0.0130000,0.9990000,4.00000,-0.30000,-10.50000
42.464075,0.0610000,0.0610000,0.0000000,-0.0080000,0.0130000,0.9960000,4.10000,-0.30000,-10.50000
42.522432,-0.0000000,-0.0000000,0.0000000,-0.0080000,0.0140000,0.9970000,4.10000,-0.30000,-10.70000
42.563816,-0.0000000,-0.0000000,0.0000000,-0.0080000,0.0130000,0.9990000,4.10000,-0.30000,-10.60000
42.613626,-0.0000000,0.0610000,0.0000000,-0.0080000,0.0140000,0.9970000,4.00000,-0.30000,-10.60000
42.664198,0.0610000,-0.0000000,0.0000000,-0.0090000,0.0120000,1.0020000,4.00000,-0.30000,-10.60000
42.713269,-0.0000000,0.0610000,0.0000000,-0.0090000,0.0150000,0.9960000,4.20000,-0.40000,-10.50000
42.763141,-0.0000000,-0.0000000,0.0000000,-0.0100000,0.0130000,1.0010000,4.10000,-0.30000,-10.40000
42.813191,-0.0000000,0.0610000,0.0000000,-0.0080000,0.0140000,0.9990000,4.00000,-0.30000,-10.60000
42.863148,-0.0000000,-0.0000000,0.0000000,-0.0090000,0.0130000,0.9960000,3.90000,-0.30000,-10.50000
42.912562,-0.0000000,-0.0000000,0.0000000,-0.0080000,0.0140000,0.9950000,4.00000,-0.20000,-10.60000
42.962657,-0.0000000,0.0610000,0.0000000,-0.0080000,0.0140000,1.0000000,4.00000,-0.20000,-10.40000
43.012579,-0.0000000,0.0610000,0.0610000,-0.0080000,0.0140000,0.9960000,4.10000,-0.20000,-10.60000
43.062694,-0.0000000,0.0610000,0.0610000,-0.0100000,0.0130000,1.0000000,4.00000,-0.20000,-10.50000
43.112284,-0.0000000,-0.0000000,0.0000000,-0.0080000,0.0140000,0.9940000,4.10000,-0.20000,-10.60000
43.162236,-0.0000000,-0.0000000,0.0610000,-0.0090000,0.0150000,1.0000000,4.20000,-0.30000,-10.60000
43.211966,-0.0000000,-0.0000000,0.0000000,-0.0090000,0.0130000,0.9950000,4.10000,-0.20000,-10.60000
43.261932,0.0610000,-0.0000000,0.0000000,-0.0080000,0.0150000,0.9990000,4.00000,-0.30000,-10.50000
43.313038,-0.0000000,0.0610000,-0.0610000,-0.0080000,0.0150000,0.9940000,4.00000,-0.20000,-10.60000
43.361956,-0.0610000,-0.0000000,0.0000000,-0.0090000,0.0130000,0.9920000,4.10000,-0.30000,-10.40000
43.412092,-0.0000000,-0.0610000,0.0000000,-0.0070000,0.0160000,0.9980000,4.00000,-0.20000,-10.40000
43.463713,-0.1830000,-0.0000000,0.0000000,-0.0080000,0.0140000,0.9970000,4.10000,-0.10000,-10.50000
43.511361,0.0610000,-0.0000000,0.0610000,-0.0090000,0.0090000,0.9990000,4.10000,-0.30000,-10.40000
43.561298,-0.0000000,-0.0000000,0.0000000,-0.0080000,0.0100000,0.9950000,3.90000,-0.30000,-10.50000
43.611174,-0.0000000,-0.0000000,0.0000000,-0.0080000,0.0150000,0.9960000,4.00000,-0.40000,-10.50000
43.661126,-0.0000000,-0.0000000,0.0000000,-0.0090000,0.0120000,0.9960000,4.00000,-0.40000,-10.60000
43.710901,-0.0000000,-0.0000000,0.0000000,-0.0080000,0.0130000,1.0010000,4.00000,-0.40000,-10.60000
43.760662,-0.0000000,-0.0000000,0.0000000,-0.0060000,0.0160000,0.9930000,4.10000,-0.50000,-10.50000
43.810719,-0.0000000,-0.0000000,0.0000000,-0.0070000,0.0140000,0.9920000,4.20000,-0.40000,-10.50000
43.860481,-0.0000000,-0.0000000,0.0000000,-0.0080000,0.0140000,0.9990000,4.00000,-0.30000,-10.60000
43.910245,-0.0000000,-0.0000000,0.0000000,-0.0080000,0.0150000,1.0010000,4.00000,-0.30000,-10.60000
43.963186,-0.0000000,-0.0000000,0.0000000,-0.0090000,0.0120000,1.0020000,4.00000,-0.20000,-10.50000
44.010002,-0.0000000,-0.0000000,0.0000000,-0.0090000,0.0120000,1.0010000,4.00000,-0.20000,-10.50000
44.059839,-0.0000000,-0.0000000,0.0000000,-0.0080000,0.0140000,0.9980000,4.10000,-0.20000,-10.50000
44.109936,-0.0000000,-0.0000000,0.0000000,-0.0090000,0.0130000,0.9970000,4.10000,-0.30000,-10.50000
44.163978,-0.0000000,-0.0000000,0.0000000,-0.0090000,0.0130000,0.9980000,4.00000,-0.30000,-10.50000
44.209941,-0.0000000,-0.0000000,0.0000000,-0.0070000,0.0140000,0.9970000,3.90000,-0.30000,-10.60000
44.263298,-0.0000000,-0.0000000,0.0000000,-0.0080000,0.0130000,0.9960000,4.10000,-0.20000,-10.60000
44.309465,-0.0000000,-0.0000000,0.0000000,-0.0080000,0.0130000,0.9970000,4.00000,-0.30000,-10.60000
44.378141,-0.0000000,-0.0000000,0.0000000,-0.0080000,0.0140000,0.9990000,4.00000,-0.20000,-10.50000
44.409341,-0.0000000,-0.0000000,0.0000000,-0.0080000,0.0140000,0.9980000,4.10000,-0.20000,-10.50000
44.458844,-0.0000000,-0.0000000,0.0000000,-0.0080000,0.0140000,0.9990000,4.00000,-0.30000,-10.60000
44.508691,-0.0000000,-0.0000000,0.0000000,-0.0080000,0.0120000,0.9950000,4.10000,-0.30000,-10.60000
44.558635,-0.0000000,-0.0000000,0.0000000,-0.0080000,0.0140000,0.9980000,4.10000,-0.40000,-10.70000
44.608680,-0.0000000,-0.0000000,0.0000000,-0.0080000,0.0140000,0.9970000,4.10000,-0.40000,-10.60000
44.658535,-0.0000000,-0.0000000,0.0000000,-0.0080000,0.0130000,0.9970000,4.10000,-0.20000,-10.60000
44.708523,-0.0000000,-0.0000000,0.0000000,-0.0070000,0.0160000,0.9960000,4.20000,-0.30000,-10.60000
44.758333,-0.0000000,-0.0000000,0.0000000,-0.0070000,0.0120000,0.9980000,4.20000,-0.30000,-10.60000
44.811597,-0.0000000,-0.0000000,0.0000000,-0.0090000,0.0110000,0.9960000,4.00000,-0.30000,-10.60000
44.857985,-0.0000000,-0.0000000,0.0000000,-0.0070000,0.0150000,0.9970000,4.10000,-0.20000,-10.80000
44.907907,-0.0000000,-0.0000000,0.0000000,-0.0090000,0.0130000,0.9970000,4.10000,-0.30000,-10.60000
44.957622,-0.0000000,-0.0000000,0.0000000,-0.0080000,0.0120000,0.9980000,4.10000,-0.30000,-10.60000
45.007619,-0.0000000,-0.0000000,0.0000000,-0.0080000,0.0140000,0.9970000,4.20000,-0.50000,-10.50000
45.057371,-0.0000000,-0.0000000,0.0000000,-0.0090000,0.0130000,0.9960000,4.00000,-0.30000,-10.60000
45.108790,-0.0000000,-0.0000000,0.0000000,-0.0080000,0.0130000,0.9970000,4.10000,-0.10000,-10.60000
45.156996,-0.0000000,-0.0000000,0.0000000,-0.0080000,0.0150000,0.9960000,4.00000,-0.20000,-10.60000
45.210144,-0.0000000,-0.0000000,0.0000000,-0.0080000,0.0150000,0.9980000,4.10000,-0.30000,-10.60000
45.258165,-0.0000000,-0.0000000,0.0000000,-0.0090000,0.0130000,0.9990000,4.10000,-0.20000,-10.60000
45.308637,-0.0000000,-0.0000000,0.0000000,-0.0070000,0.0150000,0.9980000,4.10000,-0.20000,-10.60000
45.356991,-0.0000000,-0.0000000,0.0000000,-0.0090000,0.0140000,0.9950000,4.10000,-0.30000,-10.50000
45.406660,-0.0000000,-0.0000000,0.0000000,-0.0090000,0.0120000,0.9970000,4.00000,-0.30000,-10.40000
45.456539,-0.0000000,-0.0000000,0.0000000,-0.0090000,0.0150000,0.9970000,4.00000,-0.30000,-10.50000
45.506351,-0.0000000,-0.0000000,0.0000000,-0.0090000,0.0140000,0.9970000,4.00000,-0.30000,-10.50000
45.556166,-0.0000000,-0.0000000,0.0000000,-0.0100000,0.0120000,0.9980000,4.10000,-0.30000,-10.50000
45.612110,-0.0000000,-0.0000000,0.0000000,-0.0080000,0.0150000,0.9960000,4.00000,-0.30000,-10.40000
45.658458,-0.0000000,-0.0000000,0.0000000,-0.0100000,0.0120000,0.9970000,3.90000,-0.30000,-10.60000
45.705840,-0.0000000,-0.0000000,0.0000000,-0.0090000,0.0150000,0.9980000,4.00000,-0.40000,-10.50000
45.757974,-0.0000000,-0.0000000,0.0000000,-0.0080000,0.0130000,0.9960000,3.80000,-0.30000,-10.60000
45.806096,1.0990000,0.3660000,-0.1220000,-0.0100000,0.0160000,0.9960000,4.00000,-0.30000,-10.50000
45.855725,-0.0000000,0.6710000,-0.1220000,-0.0070000,0.0090000,1.0020000,4.00000,-0.30000,-10.60000
45.905694,-0.0000000,-0.4880000,-57.9220000,-0.0170000,-0.0480000,0.9970000,4.10000,-0.20000,-10.40000
45.955501,-0.6710000,-0.5490000,-88.7450000,0.0160000,-0.0020000,0.9990000,4.00000,0.00000,-10.60000
46.005467,-1.4040000,-1.2820000,-138.7330000,-0.0600000,0.0160000,0.9990000,4.00000,0.10000,-10.60000
46.055051,-2.1970000,-1.5260000,-194.8850000,0.0160000,-0.0210000,0.9980000,4.00000,0.70000,-10.60000
46.106649,-2.6860000,-1.0990000,-127.6860000,0.0210000,0.0310000,0.9920000,4.00000,1.20000,-10.60000
46.154995,-1.3430000,-0.7930000,-77.8200000,-0.0010000,0.0010000,0.9960000,3.70000,1.60000,-10.70000
46.210681,-5.3100000,-1.8310000,-66.2230000,-0.0260000,-0.0090000,0.9660000,3.60000,2.00000,-10.70000
46.254602,-3.2960000,-1.2210000,-81.9090000,-0.0290000,0.0200000,0.9990000,3.40000,2.20000,-10.60000
46.309505,-1.2820000,-0.7320000,-68.7870000,0.0110000,-0.0000000,0.9950000,3.40000,2.50000,-10.70000
46.354693,0.1220000,-1.2820000,-138.5500000,-0.0340000,0.0130000,0.9970000,3.10000,2.80000,-10.60000
46.404404,-1.7700000,-1.2210000,-89.4780000,-0.0120000,0.0590000,0.9920000,2.80000,3.10000,-10.60000
46.454267,-5.0660000,-1.5870000,-102.1730000,-0.0420000,-0.0050000,1.0000000,2.60000,3.50000,-10.50000
46.503760,-0.7930000,-0.6710000,-78.0640000,-0.0000000,-0.0390000,0.9990000,2.20000,3.70000,-10.60000
46.553823,-2.1360000,-1.0990000,-120.5440000,-0.0470000,0.0310000,0.9990000,1.90000,3.90000,-10.60000
46.603825,-0.1830000,-0.4880000,-65.3690000,0.0190000,-0.0770000,0.9980000,1.50000,4.10000,-10.60000
46.653605,-1.5870000,-0.9160000,-51.1470000,-0.0260000,0.0250000,0.9990000,1.40000,4.30000,-10.40000
46.703693,-0.8540000,-0.5490000,-34.4240000,0.0700000,-0.0120000,0.9930000,1.40000,4.20000,-10.60000
46.753527,0.8540000,-0.1830000,-56.4580000,0.0130000,-0.0210000,0.9900000,1.10000,4.10000,-10.60000
46.803943,-1.9530000,-0.8540000,-44.6170000,-0.0150000,-0.0130000,1.0000000,0.90000,4.30000,-10.50000
46.853646,-1.0380000,0.0610000,-0.1830000,-0.0020000,-0.0000000,0.9980000,0.80000,4.10000,-10.50000
46.903122,-0.8540000,-0.4270000,-19.5920000,-0.0440000,-0.0200000,1.0040000,0.60000,4.20000,-10.60000
46.953006,-0.0610000,-0.4270000,0.1830000,-0.0020000,-0.0110000,0.9980000,0.70000,4.20000,-10.60000
47.002583,-0.0000000,-0.0000000,0.0000000,0.0040000,-0.0150000,1.0010000,0.70000,4.30000,-10.60000
47.052760,-1.0380000,-0.9770000,-99.2430000,-0.2020000,-0.0470000,1.0060000,0.30000,4.40000,-10.70000
47.102568,-5.8590000,-1.4650000,0.1220000,0.0440000,-0.1360000,0.9860000,0.30000,4.30000,-10.70000
47.152504,-0.9160000,-0.1830000,0.0000000,-0.0000000,-0.0130000,0.9950000,0.20000,4.30000,-10.70000
47.201953,-0.0000000,-0.0000000,0.0000000,-0.0010000,-0.0110000,0.9970000,0.10000,4.40000,-10.70000
47.252015,-0.0000000,-0.0000000,0.0000000,-0.0000000,-0.0100000,0.9960000,0.20000,4.50000,-10.60000
47.301976,-0.0000000,-0.0000000,0.0000000,-0.0010000,-0.0100000,0.9940000,0.20000,4.40000,-10.60000
47.352155,0.0610000,-0.0000000,-0.0610000,0.0000000,-0.0100000,0.9970000,0.20000,4.40000,-10.40000
47.401519,-0.0000000,-0.0000000,0.0000000,0.0000000,-0.0100000,0.9980000,0.40000,4.20000,-9.70000
47.451466,-0.0000000,-0.0000000,0.0000000,-0.0010000,-0.0100000,0.9980000,0.20000,4.20000,-10.20000
47.501410,-10.9250000,-1.8920000,0.1220000,0.0250000,-0.0760000,0.9870000,0.20000,4.30000,-10.50000
47.551320,0.6100000,-0.0000000,-0.0610000,-0.0020000,-0.0060000,1.0050000,0.20000,4.30000,-10.50000
47.601423,-0.0000000,-0.0000000,0.0000000,0.0030000,-0.0110000,1.0080000,0.20000,4.40000,-10.70000
47.650739,-0.0610000,-0.0000000,0.0000000,-0.0000000,-0.0120000,0.9980000,0.10000,4.50000,-10.70000
47.703383,-0.0000000,-0.0610000,0.0000000,0.0000000,-0.0110000,0.9970000,0.00000,4.40000,-10.70000
47.750934,-0.0610000,-0.0000000,0.0000000,0.0010000,-0.0110000,0.9940000,0.00000,4.40000,-10.60000
47.800524,-0.0000000,-0.0000000,0.0000000,0.0000000,-0.0110000,0.9960000,0.00000,4.30000,-10.60000
47.850330,-0.0000000,-0.0000000,0.0000000,-0.0000000,-0.0100000,0.9990000,0.10000,4.40000,-10.70000
47.903439,-0.0000000,-0.0000000,0.0000000,0.0000000,-0.0110000,0.9930000,0.00000,4.40000,-10.60000
47.950622,-0.0610000,-0.0000000,0.0000000,-0.0000000,-0.0100000,0.9970000,0.10000,4.40000,-10.60000
48.002250,-0.0610000,-0.0000000,0.0000000,-0.0010000,-0.0110000,0.9950000,0.20000,4.30000,-10.70000
48.052174,-0.1220000,0.0610000,0.0000000,-0.0000000,-0.0110000,0.9970000,0.00000,4.40000,-10.70000
48.103700,-0.1220000,0.0610000,0.0610000,-0.0000000,-0.0110000,0.9980000,0.00000,4.40000,-10.60000
48.154557,-0.0000000,-0.0610000,0.0000000,0.0010000,-0.0120000,0.9980000,0.00000,4.20000,-10.60000
48.199203,-0.0610000,-0.0610000,0.0000000,-0.0000000,-0.0110000,0.9950000,0.10000,4.20000,-10.50000
48.257182,-0.0000000,-0.0000000,0.0000000,-0.0010000,-0.0110000,0.9960000,0.00000,4.30000,-10.50000
48.299588,-0.0000000,-0.0000000,0.0000000,0.0000000,-0.0100000,0.9970000,0.10000,4.30000,-10.60000
48.349320,-0.1220000,-0.0000000,0.0610000,-0.0010000,-0.0110000,0.9970000,0.00000,4.30000,-10.40000
48.401937,-0.0610000,-0.1220000,0.0000000,-0.0020000,-0.0110000,0.9940000,0.10000,4.40000,-10.50000
48.448809,-0.0000000,-0.0000000,0.0610000,-0.0000000,-0.0110000,0.9970000,0.10000,4.40000,-10.70000
48.499459,-0.0000000,-0.0000000,0.0000000,0.0000000,-0.0120000,0.9990000,0.20000,4.50000,-10.60000
48.548770,-0.1220000,-0.0000000,0.0000000,0.0000000,-0.0110000,0.9960000,0.10000,4.50000,-10.60000
48.598650,-0.0610000,-0.0000000,0.0000000,0.0010000,-0.0100000,0.9940000,0.00000,4.50000,-10.60000
48.648409,-0.0610000,-0.0000000,0.0000000,-0.0000000,-0.0100000,0.9960000,0.00000,4.40000,-10.60000
48.698799,0.0610000,-0.0000000,0.0000000,0.0010000,-0.0100000,0.9940000,0.20000,4.40000,-10.50000
48.748051,-0.0000000,-0.0000000,0.0610000,-0.0000000,-0.0120000,1.0000000,0.10000,4.40000,-10.60000
48.798311,-0.0000000,0.0610000,0.0000000,0.0010000,-0.0120000,0.9990000,0.10000,4.40000,-10.40000
48.847925,-0.0000000,-0.0000000,0.0000000,-0.0010000,-0.0100000,0.9960000,0.00000,4.30000,-10.50000
48.897744,-0.0000000,-0.0000000,0.0000000,-0.0000000,-0.0110000,0.9940000,0.00000,4.40000,-10.60000
48.947606,-0.0000000,-0.0000000,0.0000000,-0.0000000,-0.0110000,0.9980000,0.10000,4.40000,-10.60000
48.997523,-0.0610000,-0.0000000,0.0000000,0.0000000,-0.0090000,0.9950000,0.10000,4.30000,-10.60000
49.047866,-0.0000000,-0.0000000,0.0610000,0.0010000,-0.0110000,0.9970000,0.00000,4.30000,-10.50000
49.097401,-0.0000000,-0.0000000,0.0000000,-0.0010000,-0.0120000,0.9970000,0.10000,4.60000,-10.50000
49.147119,-0.0000000,-0.0000000,0.0000000,0.0010000,-0.0120000,0.9940000,0.00000,4.60000,-10.60000
49.199113,-0.0000000,0.0610000,0.0000000,-0.0000000,-0.0120000,0.9910000,0.10000,4.50000,-10.60000
49.246954,0.0610000,-0.0000000,0.0000000,-0.0020000,-0.0110000,0.9970000,0.10000,4.40000,-10.60000
49.299311,-0.0000000,-0.0000000,0.0000000,-0.0000000,-0.0110000,0.9980000,0.00000,4.20000,-10.50000
49.347075,-0.0000000,-0.0000000,0.0610000,-0.0000000,-0.0120000,0.9970000,0.20000,4.40000,-10.60000
49.402719,-0.0000000,-0.0000000,0.0610000,-0.0010000,-0.0110000,0.9960000,0.10000,4.40000,-10.40000
49.446459,-0.0000000,-0.0000000,0.0000000,0.0000000,-0.0120000,0.9940000,0.20000,4.40000,-10.50000
49.500199,-0.0000000,-0.0000000,0.0000000,0.0010000,-0.0120000,0.9980000,0.20000,4.30000,-10.60000
49.546167,-0.0000000,-0.0610000,0.0000000,-0.0000000,-0.0120000,0.9980000,0.10000,4.40000,-10.60000
49.596186,-0.0000000,-0.0000000,0.0000000,0.0010000,-0.0120000,0.9950000,0.10000,4.40000,-10.70000
49.645913,-0.0000000,-0.0000000,0.0000000,-0.0010000,-0.0110000,0.9990000,0.00000,4.40000,-10.60000
49.695359,-0.0000000,-0.0000000,0.0000000,-0.0000000,-0.0120000,0.9970000,0.10000,4.40000,-10.50000
49.745744,-0.0000000,-0.0610000,-0.0610000,0.0000000,-0.0120000,0.9990000,0.10000,4.30000,-10.60000
49.795648,-0.0000000,-0.0000000,0.0000000,-0.0010000,-0.0110000,1.0000000,0.10000,4.40000,-10.60000
49.845050,-0.0610000,-0.0000000,0.0000000,-0.0000000,-0.0110000,0.9970000,0.10000,4.60000,-10.60000
49.895709,-0.0000000,-0.0000000,0.0000000,0.0010000,-0.0120000,0.9950000,0.10000,4.50000,-10.60000
49.945297,-0.0000000,-0.0000000,0.0000000,-0.0010000,-0.0120000,0.9980000,0.00000,4.40000,-10.50000
49.997641,-0.0000000,-0.0000000,0.0000000,0.0010000,-0.0110000,0.9980000,0.10000,4.40000,-10.60000
50.044519,-0.0000000,-0.0000000,0.0000000,-0.0000000,-0.0110000,0.9980000,0.10000,4.40000,-10.70000
50.100282,-0.0000000,-0.0000000,0.0000000,-0.0000000,-0.0120000,0.9970000,0.10000,4.40000,-10.50000
50.144897,-0.0000000,-0.0610000,0.0000000,-0.0000000,-0.0110000,0.9960000,0.20000,4.40000,-10.50000
50.197094,-0.0000000,-0.0000000,0.0000000,-0.0000000,-0.0120000,0.9910000,0.10000,4.40000,-10.50000
50.243729,-0.0000000,-0.0000000,0.0000000,-0.0000000,-0.0110000,0.9960000,0.00000,4.40000,-10.60000
50.294587,-0.0610000,-0.0000000,0.0000000,0.0000000,-0.0110000,0.9940000,0.10000,4.40000,-10.60000
50.344097,-0.0000000,-0.0000000,0.0000000,0.0000000,-0.0100000,0.9960000,0.10000,4.50000,-10.60000
50.394438,-0.0000000,-0.0000000,0.0000000,0.0010000,-0.0120000,0.9940000,0.10000,4.40000,-10.60000
50.445833,-0.0000000,-0.0000000,0.0000000,0.0010000,-0.0120000,0.9950000,0.30000,4.40000,-10.40000
50.493688,-0.0000000,-0.0000000,0.0000000,0.0010000,-0.0110000,0.9970000,0.20000,4.50000,-10.50000
50.543649,-0.0000000,-0.0000000,0.0000000,-0.0010000,-0.0100000,0.9980000,0.00000,4.30000,-10.50000
50.594040,-0.0000000,-0.0000000,0.0000000,0.0020000,-0.0100000,0.9970000,0.00000,4.40000,-10.60000
50.643938,-0.0000000,-0.0000000,0.0000000,-0.0000000,-0.0100000,0.9980000,0.10000,4.50000,-10.50000
50.693927,-0.0000000,-0.0000000,0.0000000,-0.0020000,-0.0100000,0.9990000,0.10000,4.40000,-10.60000
50.743779,-0.0000000,-0.0000000,0.0000000,0.0010000,-0.0110000,0.9970000,0.10000,4.40000,-10.60000
50.793006,-0.0000000,-0.0000000,0.0000000,0.0000000,-0.0100000,0.9960000,0.10000,4.30000,-10.60000
50.844293,-0.0000000,-0.0000000,0.0000000,-0.0000000,-0.0110000,0.9940000,0.10000,4.30000,-10.70000
50.895888,-0.0000000,-0.0000000,0.0000000,-0.0000000,-0.0110000,0.9970000,0.10000,4.40000,-10.60000
50.943870,-0.0000000,-0.0000000,0.0000000,-0.0000000,-0.0100000,0.9970000,0.20000,4.50000,-10.60000
50.993133,-0.0000000,-0.0000000,0.0000000,-0.0000000,-0.0110000,0.9950000,0.10000,4.50000,-10.70000
51.042464,-0.0000000,-0.0000000,0.0000000,0.0000000,-0.0120000,0.9970000,0.20000,4.60000,-10.50000
51.092155,-0.0000000,-0.0000000,0.0000000,-0.0010000,-0.0100000,0.9980000,0.00000,4.50000,-10.50000
51.141526,-0.0000000,-0.0000000,0.0000000,-0.0000000,-0.0110000,0.9960000,0.00000,4.50000,-10.50000
51.191770,-0.0000000,-0.0000000,0.0000000,-0.0010000,-0.0130000,1.0060000,0.00000,4.50000,-10.50000
51.241986,-0.0000000,-0.0000000,0.0000000,-0.0010000,-0.0120000,1.0000000,0.00000,4.30000,-10.40000
51.291924,-0.0000000,-0.0000000,0.0000000,0.0020000,-0.0130000,0.9990000,0.00000,4.40000,-10.60000
51.346089,-0.0000000,-0.0000000,0.0000000,-0.0000000,-0.0130000,1.0060000,0.20000,4.30000,-10.50000
51.391578,-0.0000000,-0.0000000,0.0000000,-0.0000000,-0.0120000,0.9970000,0.10000,4.50000,-10.50000
51.443816,-0.0000000,-0.0000000,0.0000000,-0.0030000,-0.0110000,0.9960000,0.00000,4.60000,-10.50000
51.490927,-0.0000000,-0.0000000,0.0000000,-0.0000000,-0.0120000,0.9960000,0.10000,4.40000,-10.60000
51.541126,-0.0000000,-0.0000000,0.0000000,-0.0000000,-0.0130000,1.0000000,0.00000,4.40000,-10.60000
51.589943,-0.0000000,-0.0000000,0.0000000,-0.0000000,-0.0110000,0.9970000,0.00000,4.40000,-10.70000
51.640730,-0.0000000,-0.0000000,0.0000000,0.0000000,-0.0120000,0.9980000,0.10000,4.40000,-10.70000
51.690061,-0.0000000,-0.0000000,0.0000000,-0.0000000,-0.0120000,0.9960000,0.00000,4.40000,-10.50000
51.743158,-0.0000000,-0.0000000,0.0000000,-0.0000000,-0.0110000,0.9970000,0.00000,4.50000,-10.30000
51.790112,-0.0000000,-0.0000000,0.0000000,-0.0000000,-0.0110000,0.9970000,0.10000,4.40000,-10.40000
51.841442,-0.0000000,-0.0000000,0.0000000,-0.0000000,-0.0120000,0.9960000,0.20000,4.40000,-10.50000
51.890208,-0.0000000,-0.0000000,0.0000000,-0.0010000,-0.0110000,0.9990000,0.10000,4.40000,-10.50000
51.943995,-0.0000000,-0.0000000,0.0000000,-0.0000000,-0.0120000,0.9990000,0.00000,4.40000,-10.60000
51.989593,-0.0000000,-0.0000000,0.0000000,-0.0000000,-0.0120000,0.9990000,0.10000,4.30000,-10.60000
52.045685,-0.0000000,-0.0000000,0.0000000,0.0000000,-0.0120000,0.9990000,0.10000,4.40000,-10.50000
52.089880,-0.0000000,-0.0000000,0.0000000,-0.0000000,-0.0110000,0.9990000,0.10000,4.40000,-10.60000
52.148116,-0.0000000,-0.0000000,0.0000000,-0.0000000,-0.0100000,0.9980000,0.00000,4.50000,-10.50000
52.189432,-0.0000000,-0.0000000,0.0000000,-0.0000000,-0.0110000,0.9970000,0.00000,4.50000,-10.60000
52.239031,-0.0000000,-0.0000000,0.0000000,-0.0000000,-0.0120000,0.9990000,0.00000,4.50000,-10.60000
52.289421,-0.0000000,-0.0000000,0.0000000,0.0000000,-0.0110000,0.9990000,0.10000,4.50000,-10.70000
52.339041,-0.0000000,-0.0000000,0.0000000,0.0000000,-0.0110000,0.9980000,0.20000,4.40000,-10.60000
52.388894,-0.0000000,-0.0000000,0.0000000,-0.0000000,-0.0100000,0.9980000,0.10000,4.40000,-10.60000
52.438492,-0.0000000,-0.0000000,0.0000000,-0.0000000,-0.0110000,0.9960000,0.10000,4.50000,-10.50000
52.488992,0.3660000,0.1220000,0.0610000,-0.0010000,-0.0030000,0.9910000,0.00000,4.40000,-10.40000
52.538149,-0.0000000,-0.0000000,-0.1220000,-0.0000000,-0.0100000,0.9960000,0.10000,4.30000,-10.60000
52.588439,-0.0000000,0.0610000,0.0000000,0.0010000,-0.0100000,0.9980000,0.00000,4.40000,-10.60000
52.638226,-0.0000000,0.0610000,0.0000000,-0.0000000,-0.0100000,0.9980000,0.00000,4.30000,-10.60000
52.687721,-0.0000000,-0.0000000,0.0000000,-0.0010000,-0.0100000,0.9970000,0.00000,4.40000,-10.60000
52.737888,-0.0000000,-0.0000000,0.0000000,0.0010000,-0.0110000,0.9960000,0.00000,4.40000,-10.60000
52.787942,-0.0000000,0.0610000,0.0000000,0.0000000,-0.0110000,0.9960000,0.10000,4.40000,-10.60000
52.838089,-8.0570000,-0.4880000,0.1220000,-0.0080000,0.0090000,1.0000000,0.10000,4.20000,-10.60000
52.887984,10.6200000,-0.4270000,0.1220000,0.0030000,-0.0080000,1.0030000,0.00000,4.20000,-10.70000
52.937573,13.0000000,-0.7930000,0.8540000,-0.0070000,0.0800000,0.9620000,0.20000,4.20000,-10.70000
52.987018,10.3760000,-1.2210000,0.1220000,-0.0000000,-0.0040000,1.0190000,0.00000,4.20000,-10.60000
53.037461,150.2080000,-4.7000000,2.5630000,0.0080000,0.1040000,1.0020000,0.20000,3.70000,-10.70000
53.087498,230.3470000,3.2350000,8.4840000,0.0170000,0.1200000,1.0270000,0.00000,2.30000,-10.90000
53.137247,286.4990000,12.3290000,-13.5500000,0.0110000,0.2900000,1.0000000,0.00000,0.40000,-11.20000
53.187283,398.4990000,-2.3800000,-13.9160000,-0.0270000,0.5080000,0.7080000,0.00000,-2.40000,-10.60000
53.237158,204.8950000,-10.9860000,-1.5260000,0.0450000,0.8620000,0.4250000,0.00000,-4.90000,-9.60000
53.287241,204.3460000,-2.7470000,-17.1510000,0.0020000,0.9390000,0.2610000,0.10000,-6.70000,-8.40000
53.337014,149.6580000,1.1600000,-2.5630000,-0.0040000,1.0030000,0.1520000,0.10000,-7.90000,-7.30000
53.387074,82.1530000,1.6480000,-6.7140000,0.0000000,1.0150000,0.0930000,0.20000,-8.60000,-6.40000
53.436733,7.5070000,3.5400000,-2.9910000,-0.0140000,1.0100000,0.0700000,0.20000,-9.00000,-5.90000
53.486656,18.1880000,12.3290000,4.6390000,0.0300000,0.9820000,0.0460000,0.30000,-9.30000,-5.50000
53.536322,12.7560000,0.7930000,-1.9530000,-0.0110000,0.9980000,0.0510000,0.20000,-9.40000,-5.30000
53.587630,4.0890000,0.0610000,-1.0380000,-0.0120000,0.9980000,0.0400000,0.30000,-9.30000,-5.30000
53.636022,-4.2720000,1.0380000,-2.8080000,-0.0120000,0.9890000,0.0500000,0.40000,-9.20000,-5.40000
53.696383,-2.6860000,1.1600000,-3.2350000,-0.0170000,0.9910000,0.0480000,0.30000,-9.40000,-5.20000
53.735699,-3.2960000,-0.0000000,1.8920000,-0.0190000,0.9870000,0.0540000,0.20000,-9.40000,-5.20000
53.787021,-1.3430000,-0.2440000,2.0140000,-0.0100000,1.0010000,0.0500000,0.20000,-9.40000,-5.30000
53.835484,-1.2210000,0.0610000,-0.4270000,-0.0130000,0.9950000,0.0520000,0.20000,-9.20000,-5.30000
53.889009,5.2490000,-0.3050000,2.6860000,-0.0140000,0.9960000,0.0530000,0.30000,-9.30000,-5.40000
53.935350,2.8080000,0.3050000,0.1830000,-0.0130000,0.9970000,0.0420000,0.30000,-9.30000,-5.20000
53.991848,-3.4180000,-0.1220000,0.4880000,-0.0100000,0.9970000,0.0470000,0.20000,-9.20000,-5.30000
54.034789,-0.0000000,0.0610000,2.0750000,-0.0070000,0.9920000,0.0570000,0.30000,-9.30000,-5.40000
54.111584,-6.2870000,0.4880000,-0.1830000,-0.0140000,0.9970000,0.0530000,0.20000,-9.30000,-5.40000
54.134712,-1.8920000,0.2440000,1.0990000,-0.0110000,0.9850000,0.0640000,0.30000,-9.60000,-4.90000
54.184480,-2.0750000,1.3430000,-1.4650000,-0.0090000,0.9950000,0.0570000,0.40000,-9.20000,-5.20000
54.234446,-5.5540000,1.1600000,-1.5260000,-0.0110000,1.0040000,0.0530000,0.30000,-9.10000,-5.30000
54.284547,-157.5320000,12.5730000,-1.5870000,-0.0340000,1.0810000,0.0110000,0.30000,-9.00000,-5.70000
54.334378,-389.9540000,-30.7010000,18.4940000,-0.0360000,1.0860000,0.0880000,0.20000,-8.00000,-7.00000
54.386446,-552.3070000,2.6250000,2.9910000,0.0660000,0.6540000,0.4890000,0.00000,-5.30000,-9.40000
54.434340,-512.5730000,13.8550000,-5.7370000,-0.0340000,0.3490000,0.7310000,-0.10000,-1.40000,-10.70000
54.483844,-2.3190000,5.9810000,0.7320000,0.0020000,-0.0310000,1.0200000,0.00000,2.30000,-10.70000
54.533455,-3.9670000,-1.8920000,7.8740000,-0.0030000,0.0000000,1.0210000,0.10000,3.50000,-10.60000
54.583550,-1.0990000,-0.1220000,-0.2440000,-0.0060000,-0.0000000,1.0010000,0.20000,4.00000,-10.60000
54.633263,3.2960000,0.4270000,-0.9160000,-0.0040000,0.0000000,1.0020000,0.20000,4.20000,-10.50000
54.683700,-1.2820000,-1.8920000,-0.6100000,0.0000000,0.0050000,0.9880000,0.20000,4.20000,-10.50000
54.732887,-2.9300000,-0.1830000,0.0610000,-0.0020000,-0.0050000,0.9850000,0.10000,4.30000,-10.60000
54.783857,-1.5870000,-0.8540000,0.3660000,0.0040000,-0.0090000,0.9980000,0.20000,4.10000,-10.30000
54.833292,-2.8080000,-1.5870000,0.0610000,0.0040000,-0.0170000,0.9860000,0.10000,4.30000,-10.40000
54.882750,-1.3430000,-0.4880000,-0.1830000,0.0030000,-0.0060000,0.9970000,0.00000,4.30000,-10.40000
54.932453,-0.0000000,-0.0000000,-0.0610000,0.0030000,-0.0060000,0.9920000,0.00000,4.50000,-10.50000
54.984076,-0.5490000,-0.0610000,-0.1830000,0.0060000,-0.0100000,1.0030000,0.00000,4.40000,-10.60000
55.032060,-0.0000000,0.4270000,0.0000000,0.0050000,-0.0100000,1.0030000,0.00000,4.30000,-10.40000
55.084239,0.0610000,0.1220000,-0.0610000,0.0070000,-0.0110000,0.9970000,0.10000,4.20000,-10.40000
55.131912,0.3050000,0.4880000,0.0000000,0.0050000,-0.0090000,0.9970000,0.20000,4.20000,-10.50000
55.181610,0.6100000,0.6710000,0.0000000,0.0010000,-0.0090000,0.9960000,0.10000,4.20000,-10.60000
55.232194,-0.3660000,0.2440000,-0.0610000,0.0020000,-0.0090000,0.9980000,0.10000,4.40000,-10.50000
55.284574,-0.7320000,-0.0610000,0.1830000,0.0060000,-0.0090000,0.9920000,0.10000,4.30000,-10.50000
55.333654,0.9770000,0.5490000,0.0610000,0.0030000,-0.0100000,0.9950000,0.20000,4.40000,-10.60000
55.381393,0.3660000,0.3660000,0.1220000,0.0010000,-0.0060000,0.9990000,0.10000,4.30000,-10.60000
55.431251,0.3050000,0.4270000,0.0000000,0.0020000,-0.0080000,0.9990000,0.10000,4.40000,-10.60000
55.480954,0.4880000,0.7930000,-0.0610000,0.0070000,-0.0140000,0.9960000,0.30000,4.40000,-10.50000
55.531059,0.8540000,1.5260000,-0.2440000,0.0030000,-0.0080000,0.9960000,0.10000,4.30000,-10.60000
55.580760,-0.1830000,0.7930000,-0.0610000,-0.0020000,-0.0060000,0.9980000,0.20000,4.40000,-10.60000
55.634747,-1.9530000,1.0380000,-0.3660000,-0.0020000,0.0050000,0.9950000,0.20000,4.20000,-10.50000
55.682984,-1.9530000,0.9770000,-0.9160000,0.0000000,-0.0090000,0.9810000,0.30000,4.20000,-10.50000
55.732695,-0.0000000,0.1830000,0.0000000,-0.0050000,-0.0080000,0.9960000,0.30000,4.40000,-10.50000
55.780267,0.0610000,0.1220000,0.0000000,-0.0030000,-0.0090000,1.0010000,0.30000,4.40000,-10.50000
55.834633,0.0610000,-0.0610000,0.0000000,-0.0000000,-0.0100000,1.0040000,0.30000,4.30000,-10.60000
55.879906,-0.1220000,-0.0000000,0.0000000,-0.0000000,-0.0080000,1.0050000,0.20000,4.30000,-10.60000
55.937079,-0.0610000,0.1220000,0.0000000,-0.0030000,-0.0090000,1.0000000,0.20000,4.30000,-10.60000
55.979477,0.0610000,-0.0000000,0.0000000,0.0020000,-0.0090000,0.9970000,0.20000,4.30000,-10.60000
56.029413,0.1830000,-0.0000000,-0.1220000,-0.0020000,-0.0080000,0.9950000,0.10000,4.30000,-10.70000
56.079589,0.9770000,0.1830000,0.0000000,0.0060000,-0.0250000,0.9960000,0.20000,4.30000,-10.50000
56.129656,-0.0000000,0.1220000,-0.0610000,-0.0060000,-0.0140000,0.9700000,0.00000,4.30000,-10.50000
56.178844,-0.0000000,-0.0000000,0.0000000,-0.0020000,-0.0060000,0.9530000,0.10000,4.40000,-10.40000
56.229013,0.6710000,0.9160000,0.0610000,0.0020000,-0.0010000,0.9710000,0.30000,4.40000,-10.30000
56.279158,-0.8540000,-0.0610000,-0.1830000,-0.0010000,-0.0070000,0.9850000,0.20000,4.30000,-10.50000
56.328699,-1.0380000,0.5490000,0.1830000,-0.0030000,-0.0080000,1.0030000,0.30000,4.40000,-10.50000
56.378754,-0.0610000,3.4180000,0.3050000,0.0060000,-0.0190000,1.0100000,0.30000,4.40000,-10.60000
56.428674,-10.4980000,45.2880000,-1.7090000,0.0300000,-0.0080000,1.0780000,0.30000,4.50000,-10.60000
56.478737,14.6480000,102.2340000,-25.8180000,-0.0650000,0.0500000,0.9690000,0.90000,4.30000,-10.50000
56.528365,-35.1560000,180.8470000,-15.3200000,-0.1400000,0.0040000,1.1220000,1.70000,4.40000,-10.50000
56.578365,-25.2690000,294.4950000,-22.8270000,-0.2820000,0.0240000,0.9880000,3.20000,4.60000,-9.90000
56.628299,-37.1090000,370.1780000,-9.2770000,-0.4410000,-0.0750000,0.8210000,5.30000,4.70000,-8.80000
56.678390,-16.8460000,433.4720000,-1.5870000,-0.5740000,-0.0980000,0.5390000,7.70000,4.80000,-6.50000
56.728286,2.3800000,246.3990000,-4.7610000,-1.1260000,-0.2940000,-0.3160000,9.00000,4.80000,-3.70000
56.778206,-25.2690000,38.8180000,4.9440000,-1.0590000,-0.0160000,-0.1920000,9.60000,4.90000,-1.70000
56.827714,-19.7140000,-13.5500000,1.9530000,-1.0510000,-0.0610000,-0.0890000,9.80000,4.80000,-0.90000
56.877710,-8.2400000,-43.5790000,3.7840000,-1.0050000,-0.1250000,0.0200000,9.90000,4.90000,-0.60000
56.927353,-6.8970000,11.1080000,3.9670000,-0.9890000,-0.0900000,0.0440000,9.90000,4.90000,-0.80000
56.977525,-2.8080000,14.2210000,4.9440000,-1.0090000,-0.0870000,-0.0080000,9.90000,4.70000,-0.60000
57.027172,-6.9580000,-2.0140000,4.8220000,-1.0130000,-0.0890000,-0.0060000,10.00000,4.80000,-0.70000
57.079627,0.3050000,-3.6010000,2.1360000,-1.0040000,-0.0780000,0.0200000,9.90000,4.60000,-0.50000
57.126856,1.0380000,-10.1320000,4.7000000,-1.0030000,-0.0940000,0.0440000,10.00000,4.60000,-0.50000
57.177335,0.4270000,0.1220000,4.4560000,-1.0060000,-0.0780000,0.0370000,10.00000,4.70000,-0.60000
57.227012,2.6860000,8.3010000,5.2490000,-1.0020000,-0.0670000,0.0200000,10.20000,4.70000,-0.70000
57.279540,4.8220000,9.0330000,-0.1830000,-1.0110000,-0.0750000,-0.0010000,10.00000,4.60000,-0.70000
57.326303,-1.0990000,4.0280000,0.1220000,-1.0050000,-0.0760000,0.0150000,10.00000,4.50000,-0.60000
57.376355,0.4270000,5.8590000,0.4270000,-1.0000000,-0.0790000,0.0170000,10.10000,4.60000,-0.50000
57.427358,2.2580000,10.8640000,-0.8540000,-1.0070000,-0.0610000,-0.0040000,10.00000,4.60000,-0.50000
57.476196,0.3050000,2.9910000,-1.2820000,-1.0060000,-0.0780000,-0.0080000,9.90000,4.70000,-0.50000
57.526279,-0.0610000,-1.1600000,0.4880000,-1.0020000,-0.0770000,-0.0030000,9.90000,4.70000,-0.50000
57.580346,0.4270000,-3.6010000,1.1600000,-1.0110000,-0.0700000,-0.0090000,10.00000,4.60000,-0.40000
57.626835,-1.5870000,-2.1970000,-0.4270000,-0.9990000,-0.0760000,0.0120000,10.00000,4.50000,-0.50000
57.680866,-1.0380000,1.0380000,0.9770000,-1.0070000,-0.0810000,0.0020000,10.00000,4.50000,-0.50000
57.725968,0.4270000,-3.9060000,2.9300000,-1.0130000,-0.0650000,-0.0020000,10.10000,4.40000,-0.50000
57.778215,1.2820000,4.8830000,0.2440000,-1.0100000,-0.0820000,0.0040000,10.10000,4.60000,-0.60000
57.827370,2.2580000,2.1360000,3.0520000,-1.0140000,-0.0820000,-0.0080000,10.10000,4.50000,-0.60000
57.880500,0.9770000,-9.3380000,2.5020000,-1.0140000,-0.0740000,-0.0190000,10.10000,4.50000,-0.50000
57.925096,-3.4180000,-29.7850000,2.3800000,-1.0300000,-0.0450000,-0.0350000,10.30000,4.60000,-0.70000
57.974615,-1.4040000,-121.0330000,7.8740000,-1.0190000,-0.0710000,0.0510000,10.20000,4.70000,-1.30000
58.024552,8.4840000,-188.8430000,-1.5260000,-1.0250000,-0.0580000,0.0760000,9.90000,4.60000,-2.20000
58.074462,8.3010000,-308.5330000,-1.0380000,-0.9630000,-0.0640000,0.1330000,9.40000,4.60000,-4.00000
58.124395,1.0380000,-448.6690000,2.7470000,-0.6670000,-0.1090000,0.4240000,7.50000,4.70000,-6.40000
58.173954,5.8590000,-452.3320000,-19.5310000,0.0930000,-0.1080000,1.2630000,4.80000,4.90000,-8.70000
58.224126,28.7480000,-49.2550000,-15.6250000,0.1100000,0.1120000,1.2680000,2.10000,4.50000,-9.80000
58.273735,1.0380000,-10.2540000,0.6100000,-0.0360000,-0.0900000,0.9220000,0.90000,4.40000,-10.40000
58.323618,2.4410000,-1.2210000,-0.1220000,-0.0030000,-0.0080000,0.9600000,0.60000,4.30000,-10.50000
58.373435,-0.4880000,-0.0000000,0.0610000,-0.0030000,-0.0070000,0.9870000,0.40000,4.30000,-10.60000
58.425178,-0.0610000,-0.4270000,0.4270000,-0.0010000,-0.0080000,0.9950000,0.20000,4.30000,-10.60000
58.473297,0.1830000,-0.4270000,0.2440000,-0.0050000,-0.0070000,1.0030000,0.20000,4.30000,-10.50000
58.523024,-1.1600000,0.0610000,0.0000000,-0.0050000,-0.0060000,1.0060000,0.30000,4.30000,-10.40000
58.572935,-0.5490000,-0.3050000,2.9300000,0.0530000,-0.0750000,1.0000000,0.30000,4.30000,-10.60000
58.624131,-0.0000000,-0.2440000,0.3050000,-0.0050000,-0.0060000,1.0000000,0.40000,4.40000,-10.50000
58.673143,0.9160000,-0.1220000,-0.1830000,-0.0040000,-0.0110000,0.9990000,0.30000,4.40000,-10.60000
58.725108,0.4880000,-0.1220000,-0.1830000,0.0010000,-0.0050000,0.9990000,0.10000,4.40000,-10.50000
58.772439,-0.7320000,-0.7930000,-0.1830000,-0.0040000,-0.0070000,0.9970000,0.30000,4.40000,-10.60000
58.823896,-1.0380000,-0.9160000,-0.0610000,-0.0020000,-0.0090000,0.9940000,0.20000,4.30000,-10.50000
58.872016,-0.7320000,-1.2210000,0.3660000,0.0010000,-0.0130000,0.9930000,0.20000,4.40000,-10.50000
58.922077,-0.7930000,-0.7320000,-0.0610000,0.0000000,-0.0070000,0.9920000,0.30000,4.30000,-10.30000
58.971726,0.3660000,-0.0000000,0.1220000,-0.0020000,-0.0090000,1.0000000,0.20000,4.30000,-10.50000
59.022682,-0.1830000,0.1220000,-0.1220000,-0.0040000,-0.0100000,1.0020000,0.20000,4.30000,-10.50000
59.071365,0.3050000,0.1830000,-0.1830000,0.0020000,-0.0050000,0.9950000,0.30000,4.30000,-10.50000
59.123667,1.2820000,0.1830000,0.0000000,-0.0000000,-0.0100000,0.9990000,0.40000,4.40000,-10.50000
59.170950,-2.6250000,-0.0000000,0.0000000,-0.0000000,-0.0130000,1.0070000,0.20000,4.40000,-10.50000
59.221133,1.7090000,0.7320000,-0.3660000,-0.0000000,-0.0230000,1.0020000,0.30000,4.40000,-10.50000
59.271095,-0.6710000,-0.1220000,0.0000000,-0.0020000,-0.0040000,1.0000000,0.20000,4.50000,-10.50000
59.321019,0.0610000,-0.0000000,0.0000000,-0.0010000,-0.0110000,0.9980000,0.20000,4.40000,-10.60000
59.370127,-0.0000000,-0.0000000,0.0000000,-0.0000000,-0.0120000,0.9970000,0.20000,4.20000,-10.40000
59.420624,-0.0000000,-0.0000000,0.0000000,-0.0010000,-0.0100000,0.9970000,0.10000,4.30000,-10.50000
59.470465,-0.0000000,-0.0000000,0.0000000,-0.0010000,-0.0110000,0.9970000,0.20000,4.30000,-10.50000
59.521499,-0.0000000,0.0610000,0.0000000,0.0000000,-0.0120000,0.9960000,0.30000,4.30000,-10.50000
59.570127,-0.0000000,-0.0000000,0.0000000,-0.0020000,-0.0100000,0.9950000,0.10000,4.30000,-10.50000
59.623528,-0.0000000,-0.0000000,0.0000000,-0.0010000,-0.0110000,0.9940000,0.20000,4.40000,-10.60000
59.669472,-0.0000000,-0.0000000,0.0000000,-0.0000000,-0.0110000,0.9960000,0.10000,4.30000,-10.70000
59.729086,-0.0000000,-0.0000000,0.0000000,-0.0010000,-0.0110000,0.9980000,0.10000,4.30000,-10.70000
59.769479,-0.0000000,-0.0000000,0.0000000,-0.0020000,-0.0110000,0.9980000,0.10000,4.40000,-10.60000
59.823023,-0.1220000,0.0610000,0.0000000,-0.0010000,-0.0120000,0.9990000,0.30000,4.30000,-10.70000
59.869449,-0.1220000,-0.0610000,0.0000000,0.0020000,-0.0180000,0.9900000,0.10000,4.40000,-10.60000
59.918883,-0.3660000,-0.0000000,0.0000000,-0.0000000,-0.0090000,0.9940000,0.20000,4.30000,-10.60000
59.969291,5.9810000,1.7700000,91.1870000,-0.0050000,-0.2880000,1.0060000,0.50000,4.30000,-10.40000
60.021718,14.7090000,5.5540000,645.7520000,0.2080000,0.0830000,0.9870000,1.40000,4.00000,-10.50000
60.069195,13.0000000,6.9580000,649.5970000,-0.1300000,0.1830000,0.9870000,2.60000,2.80000,-10.50000
60.119220,6.6530000,3.6620000,316.9560000,-0.1490000,-0.0400000,0.9950000,3.50000,1.30000,-10.40000
60.169215,3.1740000,2.8690000,203.4300000,0.0990000,-0.0850000,0.9880000,3.90000,0.40000,-10.50000
